success,trial_type,trial_index,time_elapsed,internal_node_id,timeout,failed_images,failed_audio,failed_video,rt,stimulus,response,key,instruction,instruction_class,instruction_duration,prompt,object,object_duration,animacy,style,jitter,accurate,question_order,exp,subjectId,date
True,fullscreen,0,2343,0.0-0.0,,,,,,,,,,,,,,,,,,,,MEM,MEM_0056,2022-12-08 21:40:35
True,preload,1,5179,0.0-1.0,False,[],[],[],,,,,,,,,,,,,,,,MEM,MEM_0056,2022-12-08 21:40:35
,html-keyboard-response,2,49685,0.0-2.0,,,,,44503.0,"
      <p>In this task, you will see a series of objects. On some trials, your job is to determine
      whether the object shown is a color photograph or a line drawing. On other trials, your job
      is to determine whether the object represented is animate or inanimate.

      <br><br>
      You will know which response to make depending on the initial display, which will say
      ""animate / inanimate"" or ""photo / drawing"".
      <br>
      <br>
      You will be able to use the left arrow key to report animate/photo and the right arrow key to report inanimate/drawing.
      <br>
      Please respond as quickly as possible, and use your dominant hand to make your responses.
      <br><br>
      <img src=""/static/instructions_pics/visual_pic.png"" height=""300px"">
      <br>
      In the example in the top row, the correct response is animate (left arrow key). In the example in the bottom row, the correct response is photo (left arrow key).
      <br>
      <br>You will first do some practice trials. When you are ready to begin, press the space bar.</p>", ,,,,,,,,,,,,,MEM,MEM_0056,2022-12-08 21:40:35
,visual-trial,3,54601,0.0-3.0,,,,,1393.0,,,arrowleft,animate (left arrow)&emsp;&emsp;&emsp;&emsp;inanimate (right arrow),semantic,3000.0,,/static/for_instructions/object_pics/drawing_bird/heron.jpg,7000.0,animate,drawing,519.654256161906,True,,MEM,MEM_0056,2022-12-08 21:40:35
,visual-trial,4,59678,0.0-4.0,,,,,838.0,,,arrowleft,photo (left arrow)&emsp;&emsp;&emsp;&emsp;drawing (right arrow),perceptual,3000.0,,/static/for_instructions/object_pics/picture_electronic/flashlight.jpg,7000.0,inanimate,photo,1234.434548173875,True,,MEM,MEM_0056,2022-12-08 21:40:35
,visual-trial,5,64859,0.0-5.0,,,,,1148.0,,,arrowright,animate (left arrow)&emsp;&emsp;&emsp;&emsp;inanimate (right arrow),semantic,3000.0,,/static/for_instructions/object_pics/drawing_clothe/hockey helmet.jpg,7000.0,inanimate,drawing,1028.66557164285,True,,MEM,MEM_0056,2022-12-08 21:40:35
,visual-trial,6,69818,0.0-6.0,,,,,895.0,,,arrowleft,photo (left arrow)&emsp;&emsp;&emsp;&emsp;drawing (right arrow),perceptual,3000.0,,/static/for_instructions/object_pics/picture_veggie/avocado.jpg,7000.0,inanimate,photo,1060.683215440275,True,,MEM,MEM_0056,2022-12-08 21:40:35
,survey-multi-choice,7,79760,0.0-7.0-0.0,,,,,9939.0,,"{'Style': 'True', 'Animacy': 'True'}",,,,,,,,,,,,"[0, 1]",MEM,MEM_0056,2022-12-08 21:40:35
,html-keyboard-response,8,83511,0.0-8.0,,,,,3745.0,"
      <p>Great job! Now you'll continue onto doing the main task.
      You will have the opportunity to take brief breaks at various points.
      Good luck!<br>Press the space bar to continue.</p>", ,,,,,,,,,,,,,MEM,MEM_0056,2022-12-08 21:40:35
True,fullscreen,9,86281,0.0-9.0,,,,,,,,,,,,,,,,,,,,MEM,MEM_0056,2022-12-08 21:40:35
,visual-trial,10,91458,0.0-10.0,,,,,1081.0,,,arrowright,animate (left arrow)&emsp;&emsp;&emsp;&emsp;inanimate (right arrow),semantic,3000.0,,/static/object_pics/picture_veggie/pumpkin.jpg,7000.0,inanimate,photo,1092.897489242051,True,,MEM,MEM_0056,2022-12-08 21:40:35
,visual-trial,11,96427,0.0-11.0,,,,,873.0,,,arrowright,photo (left arrow)&emsp;&emsp;&emsp;&emsp;drawing (right arrow),perceptual,3000.0,,/static/object_pics/drawing_fruit/grapes.jpg,7000.0,inanimate,drawing,1094.7349667554768,True,,MEM,MEM_0056,2022-12-08 21:40:35
,visual-trial,12,100914,0.0-12.0,,,,,834.0,,,arrowright,photo (left arrow)&emsp;&emsp;&emsp;&emsp;drawing (right arrow),perceptual,3000.0,,/static/object_pics/drawing_mammal/wolf.jpg,7000.0,animate,drawing,650.3243641691621,True,,MEM,MEM_0056,2022-12-08 21:40:35
,visual-trial,13,106991,0.0-13.0,,,,,2017.0,,,arrowright,photo (left arrow)&emsp;&emsp;&emsp;&emsp;drawing (right arrow),perceptual,3000.0,,/static/object_pics/drawing_fruit/orange.jpg,7000.0,inanimate,drawing,1056.7676055709976,True,,MEM,MEM_0056,2022-12-08 21:40:35
,visual-trial,14,111699,0.0-14.0,,,,,764.0,,,arrowright,photo (left arrow)&emsp;&emsp;&emsp;&emsp;drawing (right arrow),perceptual,3000.0,,/static/object_pics/drawing_sea/eel.jpg,7000.0,animate,drawing,940.060954694643,True,,MEM,MEM_0056,2022-12-08 21:40:35
,visual-trial,15,116420,0.0-15.0,,,,,765.0,,,arrowright,photo (left arrow)&emsp;&emsp;&emsp;&emsp;drawing (right arrow),perceptual,3000.0,,/static/object_pics/drawing_mammal/camel.jpg,7000.0,animate,drawing,953.8635658675487,True,,MEM,MEM_0056,2022-12-08 21:40:35
,visual-trial,16,121189,0.0-16.0,,,,,955.0,,,arrowleft,photo (left arrow)&emsp;&emsp;&emsp;&emsp;drawing (right arrow),perceptual,3000.0,,/static/object_pics/picture_bird/eagle.jpg,7000.0,animate,photo,811.4683978125497,True,,MEM,MEM_0056,2022-12-08 21:40:35
,visual-trial,17,125939,0.0-17.0,,,,,757.0,,,arrowright,photo (left arrow)&emsp;&emsp;&emsp;&emsp;drawing (right arrow),perceptual,3000.0,,/static/object_pics/drawing_clothe/slipper.jpg,7000.0,inanimate,drawing,988.7931676013498,True,,MEM,MEM_0056,2022-12-08 21:40:35
,visual-trial,18,131083,0.0-18.0,,,,,1298.0,,,arrowright,animate (left arrow)&emsp;&emsp;&emsp;&emsp;inanimate (right arrow),semantic,3000.0,,/static/object_pics/drawing_fruit/cherry.jpg,7000.0,inanimate,drawing,843.7016482369409,True,,MEM,MEM_0056,2022-12-08 21:40:35
,visual-trial,19,136328,0.0-19.0,,,,,940.0,,,arrowright,animate (left arrow)&emsp;&emsp;&emsp;&emsp;inanimate (right arrow),semantic,3000.0,,/static/object_pics/drawing_clothe/scarf.jpg,7000.0,inanimate,drawing,1302.237499276337,True,,MEM,MEM_0056,2022-12-08 21:40:35
,visual-trial,20,141025,0.0-20.0,,,,,1190.0,,,arrowright,animate (left arrow)&emsp;&emsp;&emsp;&emsp;inanimate (right arrow),semantic,3000.0,,/static/object_pics/picture_electronic/coffee maker.jpg,7000.0,inanimate,photo,505.48203092457777,True,,MEM,MEM_0056,2022-12-08 21:40:35
,visual-trial,21,146707,0.0-21.0,,,,,1543.0,,,arrowleft,photo (left arrow)&emsp;&emsp;&emsp;&emsp;drawing (right arrow),perceptual,3000.0,,/static/object_pics/picture_veggie/cucumber.jpg,7000.0,inanimate,photo,1136.6279640974442,True,,MEM,MEM_0056,2022-12-08 21:40:35
,visual-trial,22,151453,0.0-22.0,,,,,887.0,,,arrowright,photo (left arrow)&emsp;&emsp;&emsp;&emsp;drawing (right arrow),perceptual,3000.0,,/static/object_pics/drawing_clothe/football sneaker.jpg,7000.0,inanimate,drawing,857.3671546208883,True,,MEM,MEM_0056,2022-12-08 21:40:35
,visual-trial,23,156137,0.0-23.0,,,,,891.0,,,arrowleft,animate (left arrow)&emsp;&emsp;&emsp;&emsp;inanimate (right arrow),semantic,3000.0,,/static/object_pics/picture_bird/duck.jpg,7000.0,animate,photo,791.5894627285709,True,,MEM,MEM_0056,2022-12-08 21:40:35
,visual-trial,24,161015,0.0-24.0,,,,,1280.0,,,arrowleft,animate (left arrow)&emsp;&emsp;&emsp;&emsp;inanimate (right arrow),semantic,3000.0,,/static/object_pics/picture_bird/flamingo.jpg,7000.0,animate,photo,595.5257460838827,True,,MEM,MEM_0056,2022-12-08 21:40:35
,visual-trial,25,166208,0.0-25.0,,,,,1372.0,,,arrowright,photo (left arrow)&emsp;&emsp;&emsp;&emsp;drawing (right arrow),perceptual,3000.0,,/static/object_pics/drawing_mammal/rhinoceros.jpg,7000.0,animate,drawing,819.2253128674032,True,,MEM,MEM_0056,2022-12-08 21:40:35
,visual-trial,26,171558,0.0-26.0,,,,,859.0,,,arrowleft,photo (left arrow)&emsp;&emsp;&emsp;&emsp;drawing (right arrow),perceptual,3000.0,,/static/object_pics/picture_electronic/remote control.jpg,7000.0,inanimate,photo,1488.2992155865618,True,,MEM,MEM_0056,2022-12-08 21:40:35
,visual-trial,27,176843,0.0-27.0,,,,,1098.0,,,arrowleft,animate (left arrow)&emsp;&emsp;&emsp;&emsp;inanimate (right arrow),semantic,3000.0,,/static/object_pics/drawing_sea/dolphin.jpg,7000.0,animate,drawing,1185.045601753906,True,,MEM,MEM_0056,2022-12-08 21:40:35
,visual-trial,28,181552,0.0-28.0,,,,,1113.0,,,arrowright,animate (left arrow)&emsp;&emsp;&emsp;&emsp;inanimate (right arrow),semantic,3000.0,,/static/object_pics/drawing_clothe/glasses.jpg,7000.0,inanimate,drawing,593.4434261685828,True,,MEM,MEM_0056,2022-12-08 21:40:35
,visual-trial,29,186941,0.0-29.0,,,,,1080.0,,,arrowleft,animate (left arrow)&emsp;&emsp;&emsp;&emsp;inanimate (right arrow),semantic,3000.0,,/static/object_pics/picture_bird/pelican.jpg,7000.0,animate,photo,1306.1264115001322,True,,MEM,MEM_0056,2022-12-08 21:40:35
,visual-trial,30,192283,0.0-30.0,,,,,1063.0,,,arrowright,animate (left arrow)&emsp;&emsp;&emsp;&emsp;inanimate (right arrow),semantic,3000.0,,/static/object_pics/picture_veggie/mushrooms.jpg,7000.0,inanimate,photo,1276.0652448523522,True,,MEM,MEM_0056,2022-12-08 21:40:35
,visual-trial,31,197194,0.0-31.0,,,,,1348.0,,,arrowright,photo (left arrow)&emsp;&emsp;&emsp;&emsp;drawing (right arrow),perceptual,3000.0,,/static/object_pics/drawing_mammal/rabbit.jpg,7000.0,animate,drawing,560.4132448884269,True,,MEM,MEM_0056,2022-12-08 21:40:35
,visual-trial,32,202159,0.0-32.0,,,,,721.0,,,arrowleft,photo (left arrow)&emsp;&emsp;&emsp;&emsp;drawing (right arrow),perceptual,3000.0,,/static/object_pics/picture_veggie/carrot.jpg,7000.0,inanimate,photo,1242.5882181872666,True,,MEM,MEM_0056,2022-12-08 21:40:35
,visual-trial,33,207566,0.0-33.0,,,,,1145.0,,,arrowright,photo (left arrow)&emsp;&emsp;&emsp;&emsp;drawing (right arrow),perceptual,3000.0,,/static/object_pics/drawing_mammal/elephant.jpg,7000.0,animate,drawing,1259.7826066998477,True,,MEM,MEM_0056,2022-12-08 21:40:35
,visual-trial,34,212315,0.0-34.0,,,,,786.0,,,arrowright,animate (left arrow)&emsp;&emsp;&emsp;&emsp;inanimate (right arrow),semantic,3000.0,,/static/object_pics/drawing_fruit/kiwi.jpg,7000.0,inanimate,drawing,961.9679501500427,True,,MEM,MEM_0056,2022-12-08 21:40:35
,visual-trial,35,217617,0.0-35.0,,,,,930.0,,,arrowright,animate (left arrow)&emsp;&emsp;&emsp;&emsp;inanimate (right arrow),semantic,3000.0,,/static/object_pics/picture_electronic/radio02.jpg,7000.0,inanimate,photo,1368.3097858652384,True,,MEM,MEM_0056,2022-12-08 21:40:35
,visual-trial,36,222128,0.0-36.0,,,,,751.0,,,arrowleft,photo (left arrow)&emsp;&emsp;&emsp;&emsp;drawing (right arrow),perceptual,3000.0,,/static/object_pics/picture_veggie/corn.jpg,7000.0,inanimate,photo,758.8801282975562,True,,MEM,MEM_0056,2022-12-08 21:40:35
,visual-trial,37,226463,0.0-37.0,,,,,627.0,,,arrowright,photo (left arrow)&emsp;&emsp;&emsp;&emsp;drawing (right arrow),perceptual,3000.0,,/static/object_pics/drawing_mammal/gorilla.jpg,7000.0,animate,drawing,703.2191343789566,True,,MEM,MEM_0056,2022-12-08 21:40:35
,visual-trial,38,231655,0.0-38.0,,,,,1030.0,,,arrowleft,animate (left arrow)&emsp;&emsp;&emsp;&emsp;inanimate (right arrow),semantic,3000.0,,/static/object_pics/drawing_sea/swordfish.jpg,7000.0,animate,drawing,1158.4731185909482,True,,MEM,MEM_0056,2022-12-08 21:40:35
,visual-trial,39,236522,0.0-39.0,,,,,959.0,,,arrowleft,photo (left arrow)&emsp;&emsp;&emsp;&emsp;drawing (right arrow),perceptual,3000.0,,/static/object_pics/picture_veggie/onions.jpg,7000.0,inanimate,photo,905.2778460747779,True,,MEM,MEM_0056,2022-12-08 21:40:35
,visual-trial,40,241234,0.0-40.0,,,,,849.0,,,arrowright,animate (left arrow)&emsp;&emsp;&emsp;&emsp;inanimate (right arrow),semantic,3000.0,,/static/object_pics/drawing_fruit/coconut.jpg,7000.0,inanimate,drawing,859.9912614917914,True,,MEM,MEM_0056,2022-12-08 21:40:35
,visual-trial,41,245720,0.0-41.0,,,,,817.0,,,arrowright,animate (left arrow)&emsp;&emsp;&emsp;&emsp;inanimate (right arrow),semantic,3000.0,,/static/object_pics/drawing_fruit/apple.jpg,7000.0,inanimate,drawing,666.0589060827608,True,,MEM,MEM_0056,2022-12-08 21:40:35
,html-keyboard-response,42,263176,0.0-42.0,,,,,17453.0,"
        <p>In that last set of trials, you were correct 100% of the time.</p>
        <p>Feel free to take a brief break. In the next set of trials, you will continue with the same task.
        The instructions are displayed below, in case you need a refresher.
        Press the space bar when you are ready to continue.</p>
        <p>In this task, you will see a series of objects. On some trials, your job is to determine
        whether the object shown is a color photograph or a line drawing. On other trials, your job
        is to determine whether the object represented is animate or inanimate.

        <br><br>
        You will know which response to make depending on the initial display, which will say
        ""animate / inanimate"" or ""photo / drawing"".
        <br>
        You will be able to use the left arrow key to report animate/photo and the right arrow key to report inanimate/drawing.
        <br>
        Please respond as quickly as possible, and use your dominant hand to make your responses.
        <br><br>
        You will be able to use the left arrow key to report animate/photo and the right arrow key to report inanimate/drawing.
        <br><br>
        <img src=""/static/instructions_pics/visual_pic.png"" height=""300px"">
        <br>
        In the example in the top row, the correct response is animate (left arrow key). In the example in the bottom row, the correct response is photo (left arrow key).
        <br>
        <br>When you are ready to begin, press the space bar.</p>", ,,,,,,,,,,,,,MEM,MEM_0056,2022-12-08 21:40:35
,visual-trial,43,268321,0.0-43.0,,,,,984.0,,,arrowright,animate (left arrow)&emsp;&emsp;&emsp;&emsp;inanimate (right arrow),semantic,3000.0,,/static/object_pics/drawing_clothe/sock.jpg,7000.0,inanimate,drawing,1156.2022945551148,True,,MEM,MEM_0056,2022-12-08 21:40:35
,visual-trial,44,273445,0.0-44.0,,,,,1261.0,,,arrowleft,animate (left arrow)&emsp;&emsp;&emsp;&emsp;inanimate (right arrow),semantic,3000.0,,/static/object_pics/drawing_mammal/giraffe.jpg,7000.0,animate,drawing,860.4298612252612,True,,MEM,MEM_0056,2022-12-08 21:40:35
,visual-trial,45,278552,0.0-45.0,,,,,840.0,,,arrowright,animate (left arrow)&emsp;&emsp;&emsp;&emsp;inanimate (right arrow),semantic,3000.0,,/static/object_pics/drawing_clothe/sport t-shirt.jpg,7000.0,inanimate,drawing,1264.1130947257134,True,,MEM,MEM_0056,2022-12-08 21:40:35
,visual-trial,46,283220,0.0-46.0,,,,,684.0,,,arrowleft,photo (left arrow)&emsp;&emsp;&emsp;&emsp;drawing (right arrow),perceptual,3000.0,,/static/object_pics/picture_insect/spider.jpg,7000.0,animate,photo,981.3898675599387,True,,MEM,MEM_0056,2022-12-08 21:40:35
,visual-trial,47,287886,0.0-47.0,,,,,889.0,,,arrowright,animate (left arrow)&emsp;&emsp;&emsp;&emsp;inanimate (right arrow),semantic,3000.0,,/static/object_pics/picture_electronic/laptop.jpg,7000.0,inanimate,photo,775.7786504108,True,,MEM,MEM_0056,2022-12-08 21:40:35
,visual-trial,48,292794,0.0-48.0,,,,,725.0,,,arrowright,animate (left arrow)&emsp;&emsp;&emsp;&emsp;inanimate (right arrow),semantic,3000.0,,/static/object_pics/drawing_clothe/shirt.jpg,7000.0,inanimate,drawing,1181.0322496986587,True,,MEM,MEM_0056,2022-12-08 21:40:35
,visual-trial,49,297250,0.0-49.0,,,,,642.0,,,arrowleft,photo (left arrow)&emsp;&emsp;&emsp;&emsp;drawing (right arrow),perceptual,3000.0,,/static/object_pics/picture_insect/scorpion.jpg,7000.0,animate,photo,810.681420978496,True,,MEM,MEM_0056,2022-12-08 21:40:35
,visual-trial,50,303200,0.0-50.0,,,,,1561.0,,,arrowright,photo (left arrow)&emsp;&emsp;&emsp;&emsp;drawing (right arrow),perceptual,3000.0,,/static/object_pics/drawing_clothe/jeans.jpg,7000.0,inanimate,drawing,1385.1904884419964,True,,MEM,MEM_0056,2022-12-08 21:40:35
,visual-trial,51,307876,0.0-51.0,,,,,839.0,,,arrowright,animate (left arrow)&emsp;&emsp;&emsp;&emsp;inanimate (right arrow),semantic,3000.0,,/static/object_pics/picture_electronic/computer mouse.jpg,7000.0,inanimate,photo,833.3728277442847,True,,MEM,MEM_0056,2022-12-08 21:40:35
,visual-trial,52,313683,0.0-52.0,,,,,1384.0,,,arrowright,photo (left arrow)&emsp;&emsp;&emsp;&emsp;drawing (right arrow),perceptual,3000.0,,/static/object_pics/drawing_fruit/pear.jpg,7000.0,inanimate,drawing,1419.2500545751777,True,,MEM,MEM_0056,2022-12-08 21:40:35
,visual-trial,53,318951,0.0-53.0,,,,,1268.0,,,arrowright,animate (left arrow)&emsp;&emsp;&emsp;&emsp;inanimate (right arrow),semantic,3000.0,,/static/object_pics/picture_electronic/gamepad.jpg,7000.0,inanimate,photo,997.1625512740156,True,,MEM,MEM_0056,2022-12-08 21:40:35
,visual-trial,54,324090,0.0-54.0,,,,,846.0,,,arrowleft,animate (left arrow)&emsp;&emsp;&emsp;&emsp;inanimate (right arrow),semantic,3000.0,,/static/object_pics/picture_insect/centipede.jpg,7000.0,animate,photo,1290.7927475841743,True,,MEM,MEM_0056,2022-12-08 21:40:35
,visual-trial,55,329822,0.0-55.0,,,,,1304.0,,,arrowleft,photo (left arrow)&emsp;&emsp;&emsp;&emsp;drawing (right arrow),perceptual,3000.0,,/static/object_pics/picture_electronic/camera.jpg,7000.0,inanimate,photo,1425.6157100936884,True,,MEM,MEM_0056,2022-12-08 21:40:35
,visual-trial,56,334793,0.0-56.0,,,,,1072.0,,,arrowleft,photo (left arrow)&emsp;&emsp;&emsp;&emsp;drawing (right arrow),perceptual,3000.0,,/static/object_pics/picture_veggie/garlic.jpg,7000.0,inanimate,photo,901.4534057386636,True,,MEM,MEM_0056,2022-12-08 21:40:35
,visual-trial,57,339596,0.0-57.0,,,,,1024.0,,,arrowright,photo (left arrow)&emsp;&emsp;&emsp;&emsp;drawing (right arrow),perceptual,3000.0,,/static/object_pics/drawing_mammal/bison.jpg,7000.0,animate,drawing,784.665675337441,True,,MEM,MEM_0056,2022-12-08 21:40:35
,visual-trial,58,344421,0.0-58.0,,,,,1017.0,,,arrowleft,animate (left arrow)&emsp;&emsp;&emsp;&emsp;inanimate (right arrow),semantic,3000.0,,/static/object_pics/picture_insect/butterfly.jpg,7000.0,animate,photo,813.5680548722837,True,,MEM,MEM_0056,2022-12-08 21:40:35
,visual-trial,59,349466,0.0-59.0,,,,,1286.0,,,arrowright,photo (left arrow)&emsp;&emsp;&emsp;&emsp;drawing (right arrow),perceptual,3000.0,,/static/object_pics/drawing_mammal/bull.jpg,7000.0,animate,drawing,762.3571584481224,True,,MEM,MEM_0056,2022-12-08 21:40:35
,visual-trial,60,354654,0.0-60.0,,,,,1103.0,,,arrowright,photo (left arrow)&emsp;&emsp;&emsp;&emsp;drawing (right arrow),perceptual,3000.0,,/static/object_pics/drawing_sea/crab.jpg,7000.0,animate,drawing,1086.4302540656672,True,,MEM,MEM_0056,2022-12-08 21:40:35
,visual-trial,61,359932,0.0-61.0,,,,,1021.0,,,arrowleft,animate (left arrow)&emsp;&emsp;&emsp;&emsp;inanimate (right arrow),semantic,3000.0,,/static/object_pics/picture_insect/fly.jpg,7000.0,animate,photo,1258.730779965569,True,,MEM,MEM_0056,2022-12-08 21:40:35
,visual-trial,62,364936,0.0-62.0,,,,,902.0,,,arrowright,animate (left arrow)&emsp;&emsp;&emsp;&emsp;inanimate (right arrow),semantic,3000.0,,/static/object_pics/drawing_clothe/high heels.jpg,7000.0,inanimate,drawing,1101.8981700939357,True,,MEM,MEM_0056,2022-12-08 21:40:35
,visual-trial,63,369908,0.0-63.0,,,,,738.0,,,arrowleft,animate (left arrow)&emsp;&emsp;&emsp;&emsp;inanimate (right arrow),semantic,3000.0,,/static/object_pics/picture_bird/canary.jpg,7000.0,animate,photo,1233.6890567002447,True,,MEM,MEM_0056,2022-12-08 21:40:35
,visual-trial,64,374885,0.0-64.0,,,,,997.0,,,arrowleft,animate (left arrow)&emsp;&emsp;&emsp;&emsp;inanimate (right arrow),semantic,3000.0,,/static/object_pics/drawing_sea/mantaray.jpg,7000.0,animate,drawing,977.8770634743674,True,,MEM,MEM_0056,2022-12-08 21:40:35
,visual-trial,65,380473,0.0-65.0,,,,,1261.0,,,arrowright,photo (left arrow)&emsp;&emsp;&emsp;&emsp;drawing (right arrow),perceptual,3000.0,,/static/object_pics/drawing_mammal/antelope.jpg,7000.0,animate,drawing,1325.0974503987118,True,,MEM,MEM_0056,2022-12-08 21:40:35
,visual-trial,66,385137,0.0-66.0,,,,,929.0,,,arrowleft,photo (left arrow)&emsp;&emsp;&emsp;&emsp;drawing (right arrow),perceptual,3000.0,,/static/object_pics/picture_electronic/satellite dish.jpg,7000.0,inanimate,photo,732.1478808333892,True,,MEM,MEM_0056,2022-12-08 21:40:35
,visual-trial,67,389780,0.0-67.0,,,,,1028.0,,,arrowright,photo (left arrow)&emsp;&emsp;&emsp;&emsp;drawing (right arrow),perceptual,3000.0,,/static/object_pics/drawing_mammal/sheep.jpg,7000.0,animate,drawing,613.0193419398664,True,,MEM,MEM_0056,2022-12-08 21:40:35
,visual-trial,68,395310,0.0-68.0,,,,,1754.0,,,arrowleft,animate (left arrow)&emsp;&emsp;&emsp;&emsp;inanimate (right arrow),semantic,3000.0,,/static/object_pics/drawing_sea/jellyfish.jpg,7000.0,animate,drawing,772.2629765990787,True,,MEM,MEM_0056,2022-12-08 21:40:35
,visual-trial,69,400104,0.0-69.0,,,,,1117.0,,,arrowleft,animate (left arrow)&emsp;&emsp;&emsp;&emsp;inanimate (right arrow),semantic,3000.0,,/static/object_pics/drawing_sea/shrimp.jpg,7000.0,animate,drawing,676.5449589292094,True,,MEM,MEM_0056,2022-12-08 21:40:35
,visual-trial,70,405430,0.0-70.0,,,,,1688.0,,,arrowright,photo (left arrow)&emsp;&emsp;&emsp;&emsp;drawing (right arrow),perceptual,3000.0,,/static/object_pics/drawing_sea/killer whale.jpg,7000.0,animate,drawing,635.8660805437987,True,,MEM,MEM_0056,2022-12-08 21:40:35
,visual-trial,71,410989,0.0-71.0,,,,,1061.0,,,arrowleft,animate (left arrow)&emsp;&emsp;&emsp;&emsp;inanimate (right arrow),semantic,3000.0,,/static/object_pics/drawing_sea/piranha.jpg,7000.0,animate,drawing,1495.7151295810827,True,,MEM,MEM_0056,2022-12-08 21:40:35
,visual-trial,72,416409,0.0-72.0,,,,,1185.0,,,arrowright,photo (left arrow)&emsp;&emsp;&emsp;&emsp;drawing (right arrow),perceptual,3000.0,,/static/object_pics/drawing_clothe/bowtie.jpg,7000.0,inanimate,drawing,1231.029233657638,True,,MEM,MEM_0056,2022-12-08 21:40:35
,visual-trial,73,421328,0.0-73.0,,,,,1370.0,,,arrowleft,animate (left arrow)&emsp;&emsp;&emsp;&emsp;inanimate (right arrow),semantic,3000.0,,/static/object_pics/picture_insect/bumble bee.jpg,7000.0,animate,photo,545.2217228304388,True,,MEM,MEM_0056,2022-12-08 21:40:35
,visual-trial,74,426178,0.0-74.0,,,,,788.0,,,arrowleft,photo (left arrow)&emsp;&emsp;&emsp;&emsp;drawing (right arrow),perceptual,3000.0,,/static/object_pics/picture_veggie/asparagus.jpg,7000.0,inanimate,photo,1060.7856806471138,True,,MEM,MEM_0056,2022-12-08 21:40:35
,html-keyboard-response,75,438439,0.0-75.0,,,,,12260.0,"
        <p>In that last set of trials, you were correct 100% of the time.</p>
        <p>Feel free to take a brief break. In the next set of trials, you will continue with the same task.
        The instructions are displayed below, in case you need a refresher.
        Press the space bar when you are ready to continue.</p>
        <p>In this task, you will see a series of objects. On some trials, your job is to determine
        whether the object shown is a color photograph or a line drawing. On other trials, your job
        is to determine whether the object represented is animate or inanimate.

        <br><br>
        You will know which response to make depending on the initial display, which will say
        ""animate / inanimate"" or ""photo / drawing"".
        <br>
        You will be able to use the left arrow key to report animate/photo and the right arrow key to report inanimate/drawing.
        <br>
        Please respond as quickly as possible, and use your dominant hand to make your responses.
        <br><br>
        You will be able to use the left arrow key to report animate/photo and the right arrow key to report inanimate/drawing.
        <br><br>
        <img src=""/static/instructions_pics/visual_pic.png"" height=""300px"">
        <br>
        In the example in the top row, the correct response is animate (left arrow key). In the example in the bottom row, the correct response is photo (left arrow key).
        <br>
        <br>When you are ready to begin, press the space bar.</p>", ,,,,,,,,,,,,,MEM,MEM_0056,2022-12-08 21:40:35
,visual-trial,76,443937,0.0-76.0,,,,,1039.0,,,arrowleft,animate (left arrow)&emsp;&emsp;&emsp;&emsp;inanimate (right arrow),semantic,3000.0,,/static/object_pics/drawing_sea/octopus.jpg,7000.0,animate,drawing,1456.4585018783032,True,,MEM,MEM_0056,2022-12-08 21:40:35
,visual-trial,77,449169,0.0-77.0,,,,,1289.0,,,arrowright,animate (left arrow)&emsp;&emsp;&emsp;&emsp;inanimate (right arrow),semantic,3000.0,,/static/object_pics/drawing_clothe/dress.jpg,7000.0,inanimate,drawing,941.8367195355238,True,,MEM,MEM_0056,2022-12-08 21:40:35
,visual-trial,78,453739,0.0-78.0,,,,,865.0,,,arrowright,animate (left arrow)&emsp;&emsp;&emsp;&emsp;inanimate (right arrow),semantic,3000.0,,/static/object_pics/picture_electronic/printer.jpg,7000.0,inanimate,photo,701.197232250105,True,,MEM,MEM_0056,2022-12-08 21:40:35
,visual-trial,79,459090,0.0-79.0,,,,,1162.0,,,arrowleft,photo (left arrow)&emsp;&emsp;&emsp;&emsp;drawing (right arrow),perceptual,3000.0,,/static/object_pics/picture_electronic/microphone.jpg,7000.0,inanimate,photo,1187.6558002978459,True,,MEM,MEM_0056,2022-12-08 21:40:35
,visual-trial,80,464187,0.0-80.0,,,,,1372.0,,,arrowright,photo (left arrow)&emsp;&emsp;&emsp;&emsp;drawing (right arrow),perceptual,3000.0,,/static/object_pics/drawing_clothe/hoodie.jpg,7000.0,inanimate,drawing,721.1553729548403,True,,MEM,MEM_0056,2022-12-08 21:40:35
,visual-trial,81,469382,0.0-81.0,,,,,781.0,,,arrowright,animate (left arrow)&emsp;&emsp;&emsp;&emsp;inanimate (right arrow),semantic,3000.0,,/static/object_pics/drawing_fruit/strawberry.jpg,7000.0,inanimate,drawing,1412.489340202598,True,,MEM,MEM_0056,2022-12-08 21:40:35
,visual-trial,82,474338,0.0-82.0,,,,,818.0,,,arrowleft,animate (left arrow)&emsp;&emsp;&emsp;&emsp;inanimate (right arrow),semantic,3000.0,,/static/object_pics/picture_bird/ostrich.jpg,7000.0,animate,photo,1134.1739238052205,True,,MEM,MEM_0056,2022-12-08 21:40:35
,visual-trial,83,478945,0.0-83.0,,,,,773.0,,,arrowright,photo (left arrow)&emsp;&emsp;&emsp;&emsp;drawing (right arrow),perceptual,3000.0,,/static/object_pics/drawing_fruit/pomegranate.jpg,7000.0,inanimate,drawing,832.6267147913159,True,,MEM,MEM_0056,2022-12-08 21:40:35
,visual-trial,84,483562,0.0-84.0,,,,,1043.0,,,arrowright,photo (left arrow)&emsp;&emsp;&emsp;&emsp;drawing (right arrow),perceptual,3000.0,,/static/object_pics/drawing_fruit/melon.jpg,7000.0,inanimate,drawing,571.3778609562377,True,,MEM,MEM_0056,2022-12-08 21:40:35
,visual-trial,85,488278,0.0-85.0,,,,,690.0,,,arrowleft,animate (left arrow)&emsp;&emsp;&emsp;&emsp;inanimate (right arrow),semantic,3000.0,,/static/object_pics/picture_bird/peacock.jpg,7000.0,animate,photo,1023.0936717917114,True,,MEM,MEM_0056,2022-12-08 21:40:35
,visual-trial,86,493217,0.0-86.0,,,,,935.0,,,arrowleft,animate (left arrow)&emsp;&emsp;&emsp;&emsp;inanimate (right arrow),semantic,3000.0,,/static/object_pics/picture_bird/owl.jpg,7000.0,animate,photo,1001.124989192871,True,,MEM,MEM_0056,2022-12-08 21:40:35
,visual-trial,87,497918,0.0-87.0,,,,,732.0,,,arrowleft,animate (left arrow)&emsp;&emsp;&emsp;&emsp;inanimate (right arrow),semantic,3000.0,,/static/object_pics/picture_bird/parrot.jpg,7000.0,animate,photo,966.6363535610978,True,,MEM,MEM_0056,2022-12-08 21:40:35
,visual-trial,88,503183,0.0-88.0,,,,,926.0,,,arrowleft,animate (left arrow)&emsp;&emsp;&emsp;&emsp;inanimate (right arrow),semantic,3000.0,,/static/object_pics/drawing_sea/seal.jpg,7000.0,animate,drawing,1335.50860121499,True,,MEM,MEM_0056,2022-12-08 21:40:35
,visual-trial,89,508112,0.0-89.0,,,,,860.0,,,arrowleft,animate (left arrow)&emsp;&emsp;&emsp;&emsp;inanimate (right arrow),semantic,3000.0,,/static/object_pics/picture_insect/beetle.jpg,7000.0,animate,photo,1067.3588754882653,True,,MEM,MEM_0056,2022-12-08 21:40:35
,visual-trial,90,513338,0.0-90.0,,,,,963.0,,,arrowright,animate (left arrow)&emsp;&emsp;&emsp;&emsp;inanimate (right arrow),semantic,3000.0,,/static/object_pics/drawing_clothe/tie.jpg,7000.0,inanimate,drawing,1260.1738601359314,True,,MEM,MEM_0056,2022-12-08 21:40:35
,visual-trial,91,518019,0.0-91.0,,,,,872.0,,,arrowleft,animate (left arrow)&emsp;&emsp;&emsp;&emsp;inanimate (right arrow),semantic,3000.0,,/static/object_pics/drawing_mammal/horse.jpg,7000.0,animate,drawing,806.357636018125,True,,MEM,MEM_0056,2022-12-08 21:40:35
,visual-trial,92,522678,0.0-92.0,,,,,765.0,,,arrowleft,photo (left arrow)&emsp;&emsp;&emsp;&emsp;drawing (right arrow),perceptual,3000.0,,/static/object_pics/picture_veggie/artichoke.jpg,7000.0,inanimate,photo,891.1143433504274,True,,MEM,MEM_0056,2022-12-08 21:40:35
,visual-trial,93,527875,0.0-93.0,,,,,749.0,,,arrowleft,animate (left arrow)&emsp;&emsp;&emsp;&emsp;inanimate (right arrow),semantic,3000.0,,/static/object_pics/picture_bird/vulture.jpg,7000.0,animate,photo,1445.8708578784422,True,,MEM,MEM_0056,2022-12-08 21:40:35
,visual-trial,94,532528,0.0-94.0,,,,,878.0,,,arrowleft,photo (left arrow)&emsp;&emsp;&emsp;&emsp;drawing (right arrow),perceptual,3000.0,,/static/object_pics/picture_electronic/calculator.jpg,7000.0,inanimate,photo,771.3593037096939,True,,MEM,MEM_0056,2022-12-08 21:40:35
,visual-trial,95,538181,0.0-95.0,,,,,1491.0,,,arrowleft,photo (left arrow)&emsp;&emsp;&emsp;&emsp;drawing (right arrow),perceptual,3000.0,,/static/object_pics/picture_bird/hen.jpg,7000.0,animate,photo,1161.1549994312722,True,,MEM,MEM_0056,2022-12-08 21:40:35
,visual-trial,96,543248,0.0-96.0,,,,,870.0,,,arrowright,animate (left arrow)&emsp;&emsp;&emsp;&emsp;inanimate (right arrow),semantic,3000.0,,/static/object_pics/picture_veggie/tomato.jpg,7000.0,inanimate,photo,1193.3402257426526,True,,MEM,MEM_0056,2022-12-08 21:40:35
,visual-trial,97,547909,0.0-97.0,,,,,869.0,,,arrowright,animate (left arrow)&emsp;&emsp;&emsp;&emsp;inanimate (right arrow),semantic,3000.0,,/static/object_pics/picture_electronic/phone.jpg,7000.0,inanimate,photo,788.4822273158396,True,,MEM,MEM_0056,2022-12-08 21:40:35
,visual-trial,98,553396,0.0-98.0,,,,,1187.0,,,arrowleft,photo (left arrow)&emsp;&emsp;&emsp;&emsp;drawing (right arrow),perceptual,3000.0,,/static/object_pics/picture_veggie/cauliflower.jpg,7000.0,inanimate,photo,1296.5257406724945,True,,MEM,MEM_0056,2022-12-08 21:40:35
,visual-trial,99,558352,0.0-99.0,,,,,1106.0,,,arrowleft,animate (left arrow)&emsp;&emsp;&emsp;&emsp;inanimate (right arrow),semantic,3000.0,,/static/object_pics/picture_bird/hummingbird.jpg,7000.0,animate,photo,846.7200821942267,True,,MEM,MEM_0056,2022-12-08 21:40:35
,visual-trial,100,563507,0.0-100.0,,,,,886.0,,,arrowright,animate (left arrow)&emsp;&emsp;&emsp;&emsp;inanimate (right arrow),semantic,3000.0,,/static/object_pics/drawing_clothe/hat.jpg,7000.0,inanimate,drawing,1266.3549590000043,True,,MEM,MEM_0056,2022-12-08 21:40:35
,visual-trial,101,568328,0.0-101.0,,,,,798.0,,,arrowleft,animate (left arrow)&emsp;&emsp;&emsp;&emsp;inanimate (right arrow),semantic,3000.0,,/static/object_pics/picture_insect/cockroach.jpg,7000.0,animate,photo,1020.5377459875209,True,,MEM,MEM_0056,2022-12-08 21:40:35
,visual-trial,102,573585,0.0-102.0,,,,,1194.0,,,arrowright,animate (left arrow)&emsp;&emsp;&emsp;&emsp;inanimate (right arrow),semantic,3000.0,,/static/object_pics/drawing_fruit/apricot.jpg,7000.0,inanimate,drawing,1059.128857357916,True,,MEM,MEM_0056,2022-12-08 21:40:35
,visual-trial,103,578522,0.0-103.0,,,,,819.0,,,arrowleft,animate (left arrow)&emsp;&emsp;&emsp;&emsp;inanimate (right arrow),semantic,3000.0,,/static/object_pics/picture_insect/dragonfly.jpg,7000.0,animate,photo,1117.4042916042563,True,,MEM,MEM_0056,2022-12-08 21:40:35
,visual-trial,104,583838,0.0-104.0,,,,,897.0,,,arrowleft,animate (left arrow)&emsp;&emsp;&emsp;&emsp;inanimate (right arrow),semantic,3000.0,,/static/object_pics/drawing_mammal/lion.jpg,7000.0,animate,drawing,1417.3573236817128,True,,MEM,MEM_0056,2022-12-08 21:40:35
,visual-trial,105,589068,0.0-105.0,,,,,785.0,,,arrowleft,animate (left arrow)&emsp;&emsp;&emsp;&emsp;inanimate (right arrow),semantic,3000.0,,/static/object_pics/picture_insect/worm.jpg,7000.0,animate,photo,1443.3695698849754,True,,MEM,MEM_0056,2022-12-08 21:40:35
,visual-trial,106,593815,0.0-106.0,,,,,784.0,,,arrowleft,photo (left arrow)&emsp;&emsp;&emsp;&emsp;drawing (right arrow),perceptual,3000.0,,/static/object_pics/picture_insect/ladybug.jpg,7000.0,animate,photo,962.1589691510599,True,,MEM,MEM_0056,2022-12-08 21:40:35
,visual-trial,107,599061,0.0-107.0,,,,,829.0,,,arrowleft,photo (left arrow)&emsp;&emsp;&emsp;&emsp;drawing (right arrow),perceptual,3000.0,,/static/object_pics/picture_bird/pigeon.jpg,7000.0,animate,photo,1414.9114405286623,True,,MEM,MEM_0056,2022-12-08 21:40:35
,html-keyboard-response,108,611802,0.0-108.0,,,,,12739.0,"
        <p>In that last set of trials, you were correct 100% of the time.</p>
        <p>Feel free to take a brief break. In the next set of trials, you will continue with the same task.
        The instructions are displayed below, in case you need a refresher.
        Press the space bar when you are ready to continue.</p>
        <p>In this task, you will see a series of objects. On some trials, your job is to determine
        whether the object shown is a color photograph or a line drawing. On other trials, your job
        is to determine whether the object represented is animate or inanimate.

        <br><br>
        You will know which response to make depending on the initial display, which will say
        ""animate / inanimate"" or ""photo / drawing"".
        <br>
        You will be able to use the left arrow key to report animate/photo and the right arrow key to report inanimate/drawing.
        <br>
        Please respond as quickly as possible, and use your dominant hand to make your responses.
        <br><br>
        You will be able to use the left arrow key to report animate/photo and the right arrow key to report inanimate/drawing.
        <br><br>
        <img src=""/static/instructions_pics/visual_pic.png"" height=""300px"">
        <br>
        In the example in the top row, the correct response is animate (left arrow key). In the example in the bottom row, the correct response is photo (left arrow key).
        <br>
        <br>When you are ready to begin, press the space bar.</p>", ,,,,,,,,,,,,,MEM,MEM_0056,2022-12-08 21:40:35
,visual-trial,109,616353,0.0-109.0,,,,,1029.0,,,arrowleft,photo (left arrow)&emsp;&emsp;&emsp;&emsp;drawing (right arrow),perceptual,3000.0,,/static/object_pics/picture_electronic/handmixer.jpg,7000.0,inanimate,photo,520.3299044291556,True,,MEM,MEM_0056,2022-12-08 21:40:35
,visual-trial,110,621479,0.0-110.0,,,,,1163.0,,,arrowleft,animate (left arrow)&emsp;&emsp;&emsp;&emsp;inanimate (right arrow),semantic,3000.0,,/static/object_pics/picture_bird/toucan.jpg,7000.0,animate,photo,961.4927289801567,True,,MEM,MEM_0056,2022-12-08 21:40:35
,visual-trial,111,625850,0.0-111.0,,,,,779.0,,,arrowright,photo (left arrow)&emsp;&emsp;&emsp;&emsp;drawing (right arrow),perceptual,3000.0,,/static/object_pics/drawing_sea/shark.jpg,7000.0,animate,drawing,588.6375185236783,True,,MEM,MEM_0056,2022-12-08 21:40:35
,visual-trial,112,630528,0.0-112.0,,,,,880.0,,,arrowright,animate (left arrow)&emsp;&emsp;&emsp;&emsp;inanimate (right arrow),semantic,3000.0,,/static/object_pics/picture_veggie/potato.jpg,7000.0,inanimate,photo,795.9716521735194,True,,MEM,MEM_0056,2022-12-08 21:40:35
,visual-trial,113,635326,0.0-113.0,,,,,802.0,,,arrowright,photo (left arrow)&emsp;&emsp;&emsp;&emsp;drawing (right arrow),perceptual,3000.0,,/static/object_pics/drawing_fruit/lemon.jpg,7000.0,inanimate,drawing,994.7790074470961,True,,MEM,MEM_0056,2022-12-08 21:40:35
,visual-trial,114,640533,0.0-114.0,,,,,945.0,,,arrowright,photo (left arrow)&emsp;&emsp;&emsp;&emsp;drawing (right arrow),perceptual,3000.0,,/static/object_pics/drawing_fruit/pineapple.jpg,7000.0,inanimate,drawing,1259.1743428279137,True,,MEM,MEM_0056,2022-12-08 21:40:35
,visual-trial,115,645087,0.0-115.0,,,,,1040.0,,,arrowleft,photo (left arrow)&emsp;&emsp;&emsp;&emsp;drawing (right arrow),perceptual,3000.0,,/static/object_pics/picture_veggie/aubergine.jpg,7000.0,inanimate,photo,512.4178826179573,True,,MEM,MEM_0056,2022-12-08 21:40:35
,visual-trial,116,649804,0.0-116.0,,,,,915.0,,,arrowleft,photo (left arrow)&emsp;&emsp;&emsp;&emsp;drawing (right arrow),perceptual,3000.0,,/static/object_pics/picture_insect/snail.jpg,7000.0,animate,photo,798.9029353200947,True,,MEM,MEM_0056,2022-12-08 21:40:35
,visual-trial,117,654417,0.0-117.0,,,,,833.0,,,arrowright,animate (left arrow)&emsp;&emsp;&emsp;&emsp;inanimate (right arrow),semantic,3000.0,,/static/object_pics/picture_electronic/toaster.jpg,7000.0,inanimate,photo,775.8394522615765,True,,MEM,MEM_0056,2022-12-08 21:40:35
,visual-trial,118,659253,0.0-118.0,,,,,847.0,,,arrowleft,photo (left arrow)&emsp;&emsp;&emsp;&emsp;drawing (right arrow),perceptual,3000.0,,/static/object_pics/picture_bird/penguin.jpg,7000.0,animate,photo,987.1627645029191,True,,MEM,MEM_0056,2022-12-08 21:40:35
,visual-trial,119,664521,0.0-119.0,,,,,807.0,,,arrowleft,photo (left arrow)&emsp;&emsp;&emsp;&emsp;drawing (right arrow),perceptual,3000.0,,/static/object_pics/picture_insect/mosquito.jpg,7000.0,animate,photo,1457.755065997236,True,,MEM,MEM_0056,2022-12-08 21:40:35
,visual-trial,120,669838,0.0-120.0,,,,,1181.0,,,arrowright,photo (left arrow)&emsp;&emsp;&emsp;&emsp;drawing (right arrow),perceptual,3000.0,,/static/object_pics/drawing_mammal/bear.jpg,7000.0,animate,drawing,1133.6138451826928,True,,MEM,MEM_0056,2022-12-08 21:40:35
,visual-trial,121,674880,0.0-121.0,,,,,1053.0,,,arrowleft,photo (left arrow)&emsp;&emsp;&emsp;&emsp;drawing (right arrow),perceptual,3000.0,,/static/object_pics/drawing_sea/pufferfish.jpg,7000.0,animate,drawing,986.3774979475879,False,,MEM,MEM_0056,2022-12-08 21:40:35
,visual-trial,122,680980,0.0-122.0,,,,,1744.0,,,arrowleft,photo (left arrow)&emsp;&emsp;&emsp;&emsp;drawing (right arrow),perceptual,3000.0,,/static/object_pics/picture_veggie/pepper.jpg,7000.0,inanimate,photo,1354.545595335987,True,,MEM,MEM_0056,2022-12-08 21:40:35
,visual-trial,123,686030,0.0-123.0,,,,,947.0,,,arrowleft,photo (left arrow)&emsp;&emsp;&emsp;&emsp;drawing (right arrow),perceptual,3000.0,,/static/object_pics/picture_electronic/keyboard.jpg,7000.0,inanimate,photo,1102.0645184326638,True,,MEM,MEM_0056,2022-12-08 21:40:35
,visual-trial,124,691154,0.0-124.0,,,,,706.0,,,arrowleft,photo (left arrow)&emsp;&emsp;&emsp;&emsp;drawing (right arrow),perceptual,3000.0,,/static/object_pics/picture_bird/turkey.jpg,7000.0,animate,photo,1415.3946240913588,True,,MEM,MEM_0056,2022-12-08 21:40:35
,visual-trial,125,696493,0.0-125.0,,,,,1288.0,,,arrowleft,animate (left arrow)&emsp;&emsp;&emsp;&emsp;inanimate (right arrow),semantic,3000.0,,/static/object_pics/picture_insect/grasshopper.jpg,7000.0,animate,photo,1047.0268710021232,True,,MEM,MEM_0056,2022-12-08 21:40:35
,visual-trial,126,701704,0.0-126.0,,,,,1332.0,,,arrowright,photo (left arrow)&emsp;&emsp;&emsp;&emsp;drawing (right arrow),perceptual,3000.0,,/static/object_pics/drawing_fruit/papaya.jpg,7000.0,inanimate,drawing,875.1173048972139,True,,MEM,MEM_0056,2022-12-08 21:40:35
,visual-trial,127,707436,0.0-127.0,,,,,1419.0,,,arrowright,animate (left arrow)&emsp;&emsp;&emsp;&emsp;inanimate (right arrow),semantic,3000.0,,/static/object_pics/drawing_fruit/watermelon.jpg,7000.0,inanimate,drawing,1310.2858231301416,True,,MEM,MEM_0056,2022-12-08 21:40:35
,visual-trial,128,712604,0.0-128.0,,,,,1007.0,,,arrowleft,photo (left arrow)&emsp;&emsp;&emsp;&emsp;drawing (right arrow),perceptual,3000.0,,/static/object_pics/drawing_sea/seahorse.jpg,7000.0,animate,drawing,1159.5764196008797,False,,MEM,MEM_0056,2022-12-08 21:40:35
,visual-trial,129,717815,0.0-129.0,,,,,1010.0,,,arrowleft,photo (left arrow)&emsp;&emsp;&emsp;&emsp;drawing (right arrow),perceptual,3000.0,,/static/object_pics/picture_veggie/lettuce.jpg,7000.0,inanimate,photo,1199.41971671139,True,,MEM,MEM_0056,2022-12-08 21:40:35
,visual-trial,130,722887,0.0-130.0,,,,,1256.0,,,arrowleft,animate (left arrow)&emsp;&emsp;&emsp;&emsp;inanimate (right arrow),semantic,3000.0,,/static/object_pics/drawing_mammal/squirrel.jpg,7000.0,animate,drawing,813.2498617742594,True,,MEM,MEM_0056,2022-12-08 21:40:35
,visual-trial,131,727504,0.0-131.0,,,,,1041.0,,,arrowleft,photo (left arrow)&emsp;&emsp;&emsp;&emsp;drawing (right arrow),perceptual,3000.0,,/static/object_pics/picture_veggie/beetroot.jpg,7000.0,inanimate,photo,572.6820163676458,True,,MEM,MEM_0056,2022-12-08 21:40:35
,visual-trial,132,733170,0.0-132.0,,,,,1418.0,,,arrowright,photo (left arrow)&emsp;&emsp;&emsp;&emsp;drawing (right arrow),perceptual,3000.0,,/static/object_pics/drawing_clothe/belt.jpg,7000.0,inanimate,drawing,1245.8358985701766,True,,MEM,MEM_0056,2022-12-08 21:40:35
,visual-trial,133,738176,0.0-133.0,,,,,758.0,,,arrowleft,photo (left arrow)&emsp;&emsp;&emsp;&emsp;drawing (right arrow),perceptual,3000.0,,/static/object_pics/picture_insect/ant.jpg,7000.0,animate,photo,1243.7632168062164,True,,MEM,MEM_0056,2022-12-08 21:40:35
,visual-trial,134,743126,0.0-134.0,,,,,940.0,,,arrowright,photo (left arrow)&emsp;&emsp;&emsp;&emsp;drawing (right arrow),perceptual,3000.0,,/static/object_pics/drawing_mammal/kangaroo.jpg,7000.0,animate,drawing,1006.9932347434096,True,,MEM,MEM_0056,2022-12-08 21:40:35
,visual-trial,135,748524,0.0-135.0,,,,,1008.0,,,arrowright,animate (left arrow)&emsp;&emsp;&emsp;&emsp;inanimate (right arrow),semantic,3000.0,,/static/object_pics/drawing_clothe/gloves.jpg,7000.0,inanimate,drawing,1386.748893501003,True,,MEM,MEM_0056,2022-12-08 21:40:35
,visual-trial,136,753528,0.0-136.0,,,,,1252.0,,,arrowleft,animate (left arrow)&emsp;&emsp;&emsp;&emsp;inanimate (right arrow),semantic,3000.0,,/static/object_pics/picture_insect/mantis.jpg,7000.0,animate,photo,748.798294681772,True,,MEM,MEM_0056,2022-12-08 21:40:35
,visual-trial,137,758621,0.0-137.0,,,,,1335.0,,,arrowright,photo (left arrow)&emsp;&emsp;&emsp;&emsp;drawing (right arrow),perceptual,3000.0,,/static/object_pics/drawing_fruit/banana.jpg,7000.0,inanimate,drawing,754.2055478652347,True,,MEM,MEM_0056,2022-12-08 21:40:35
,visual-trial,138,763845,0.0-138.0,,,,,1181.0,,,arrowleft,photo (left arrow)&emsp;&emsp;&emsp;&emsp;drawing (right arrow),perceptual,3000.0,,/static/object_pics/picture_electronic/hairdryer.jpg,7000.0,inanimate,photo,1040.4973126224677,True,,MEM,MEM_0056,2022-12-08 21:40:35
,visual-trial,139,768786,0.0-139.0,,,,,1269.0,,,arrowleft,animate (left arrow)&emsp;&emsp;&emsp;&emsp;inanimate (right arrow),semantic,3000.0,,/static/object_pics/drawing_sea/starfish.jpg,7000.0,animate,drawing,670.3562591310902,True,,MEM,MEM_0056,2022-12-08 21:40:35
,visual-trial,140,774275,0.0-140.0,,,,,1078.0,,,arrowleft,animate (left arrow)&emsp;&emsp;&emsp;&emsp;inanimate (right arrow),semantic,3000.0,,/static/object_pics/drawing_sea/seaturtle.jpg,7000.0,animate,drawing,1409.3578201891687,True,,MEM,MEM_0056,2022-12-08 21:40:35
,html-keyboard-response,141,787219,0.0-141.0,,,,,12942.0,"
      <p>Thank you for your participation!</p>
      The goal of this study is to replicate previous findings that the timing of responses in memory-dependent tasks
      is rhythmic in nature (compared to the timing of responses in memory-independent tasks).
      You performed the memory-independent tasks in this study.
      <br>
      Your participation will allow us to better understand how memory works.
      Please do not share this information with other potential participants.
      <br>
      Press the space bar to continue.</p>", ,,,,,,,,,,,,,MEM,MEM_0056,2022-12-08 21:40:35
