success,trial_type,trial_index,time_elapsed,internal_node_id,timeout,failed_images,failed_audio,failed_video,rt,stimulus,response,key,instruction,instruction_class,instruction_duration,prompt,object,object_duration,animacy,style,jitter,accurate,question_order,exp,subjectId,date
True,fullscreen,0,6754,0.0-0.0,,,,,,,,,,,,,,,,,,,,MEM,MEM_0073,2022-12-08 22:24:34
True,preload,1,16157,0.0-1.0,False,[],[],[],,,,,,,,,,,,,,,,MEM,MEM_0073,2022-12-08 22:24:34
,html-keyboard-response,2,163635,0.0-2.0,,,,,147480.0,"
      <p>In this task, you will see a series of objects. On some trials, your job is to determine
      whether the object shown is a color photograph or a line drawing. On other trials, your job
      is to determine whether the object represented is animate or inanimate.

      <br><br>
      You will know which response to make depending on the initial display, which will say
      ""animate / inanimate"" or ""photo / drawing"".
      <br>
      <br>
      You will be able to use the left arrow key to report animate/photo and the right arrow key to report inanimate/drawing.
      <br>
      Please respond as quickly as possible, and use your dominant hand to make your responses.
      <br><br>
      <img src=""/static/instructions_pics/visual_pic.png"" height=""300px"">
      <br>
      In the example in the top row, the correct response is animate (left arrow key). In the example in the bottom row, the correct response is photo (left arrow key).
      <br>
      <br>You will first do some practice trials. When you are ready to begin, press the space bar.</p>", ,,,,,,,,,,,,,MEM,MEM_0073,2022-12-08 22:24:34
,visual-trial,3,169664,0.0-3.0,,,,,2197.0,,,arrowleft,animate (left arrow)&emsp;&emsp;&emsp;&emsp;inanimate (right arrow),semantic,3000.0,,/static/for_instructions/object_pics/drawing_bird/heron.jpg,7000.0,animate,drawing,825.7876951571477,True,,MEM,MEM_0073,2022-12-08 22:24:34
,visual-trial,4,173950,0.0-4.0,,,,,778.0,,,arrowleft,photo (left arrow)&emsp;&emsp;&emsp;&emsp;drawing (right arrow),perceptual,3000.0,,/static/for_instructions/object_pics/picture_electronic/flashlight.jpg,7000.0,inanimate,photo,502.85218325463575,True,,MEM,MEM_0073,2022-12-08 22:24:34
,visual-trial,5,180235,0.0-5.0,,,,,2598.0,,,arrowright,animate (left arrow)&emsp;&emsp;&emsp;&emsp;inanimate (right arrow),semantic,3000.0,,/static/for_instructions/object_pics/drawing_clothe/hockey helmet.jpg,7000.0,inanimate,drawing,683.1499921372182,True,,MEM,MEM_0073,2022-12-08 22:24:34
,visual-trial,6,185413,0.0-6.0,,,,,1258.0,,,arrowleft,photo (left arrow)&emsp;&emsp;&emsp;&emsp;drawing (right arrow),perceptual,3000.0,,/static/for_instructions/object_pics/picture_veggie/avocado.jpg,7000.0,inanimate,photo,911.6349551932137,True,,MEM,MEM_0073,2022-12-08 22:24:34
,survey-multi-choice,7,215190,0.0-7.0-0.0,,,,,29775.0,,"{'Style': 'True', 'Animacy': 'True'}",,,,,,,,,,,,"[0, 1]",MEM,MEM_0073,2022-12-08 22:24:34
,html-keyboard-response,8,221312,0.0-8.0,,,,,6112.0,"
      <p>Great job! Now you'll continue onto doing the main task.
      You will have the opportunity to take brief breaks at various points.
      Good luck!<br>Press the space bar to continue.</p>", ,,,,,,,,,,,,,MEM,MEM_0073,2022-12-08 22:24:34
True,fullscreen,9,226060,0.0-9.0,,,,,,,,,,,,,,,,,,,,MEM,MEM_0073,2022-12-08 22:24:34
,visual-trial,10,231497,0.0-10.0,,,,,1333.0,,,arrowright,photo (left arrow)&emsp;&emsp;&emsp;&emsp;drawing (right arrow),perceptual,3000.0,,/static/object_pics/drawing_veggie/corn.jpg,7000.0,inanimate,drawing,1092.656351732231,True,,MEM,MEM_0073,2022-12-08 22:24:34
,visual-trial,11,236260,0.0-11.0,,,,,818.0,,,arrowright,photo (left arrow)&emsp;&emsp;&emsp;&emsp;drawing (right arrow),perceptual,3000.0,,/static/object_pics/drawing_bird/vulture.jpg,7000.0,animate,drawing,939.9048752481993,True,,MEM,MEM_0073,2022-12-08 22:24:34
,visual-trial,12,240732,0.0-12.0,,,,,757.0,,,arrowleft,photo (left arrow)&emsp;&emsp;&emsp;&emsp;drawing (right arrow),perceptual,3000.0,,/static/object_pics/picture_sea/killer whale.jpg,7000.0,animate,photo,708.529093432976,True,,MEM,MEM_0073,2022-12-08 22:24:34
,visual-trial,13,246699,0.0-13.0,,,,,2090.0,,,arrowright,animate (left arrow)&emsp;&emsp;&emsp;&emsp;inanimate (right arrow),semantic,3000.0,,/static/object_pics/drawing_clothe/high heels.jpg,7000.0,inanimate,drawing,869.6180709536809,True,,MEM,MEM_0073,2022-12-08 22:24:34
,visual-trial,14,252927,0.0-14.0,,,,,1814.0,,,arrowright,animate (left arrow)&emsp;&emsp;&emsp;&emsp;inanimate (right arrow),semantic,3000.0,,/static/object_pics/drawing_veggie/cauliflower.jpg,7000.0,inanimate,drawing,1406.496586244426,True,,MEM,MEM_0073,2022-12-08 22:24:34
,visual-trial,15,257559,0.0-15.0,,,,,1062.0,,,arrowleft,photo (left arrow)&emsp;&emsp;&emsp;&emsp;drawing (right arrow),perceptual,3000.0,,/static/object_pics/picture_insect/mantis.jpg,7000.0,animate,photo,565.3349935145329,True,,MEM,MEM_0073,2022-12-08 22:24:34
,visual-trial,16,261978,0.0-16.0,,,,,830.0,,,arrowright,animate (left arrow)&emsp;&emsp;&emsp;&emsp;inanimate (right arrow),semantic,3000.0,,/static/object_pics/drawing_veggie/artichoke.jpg,7000.0,inanimate,drawing,582.819810883306,True,,MEM,MEM_0073,2022-12-08 22:24:34
,visual-trial,17,267024,0.0-17.0,,,,,1077.0,,,arrowright,animate (left arrow)&emsp;&emsp;&emsp;&emsp;inanimate (right arrow),semantic,3000.0,,/static/object_pics/drawing_clothe/hoodie.jpg,7000.0,inanimate,drawing,964.916521011451,True,,MEM,MEM_0073,2022-12-08 22:24:34
,visual-trial,18,271832,0.0-18.0,,,,,792.0,,,arrowleft,photo (left arrow)&emsp;&emsp;&emsp;&emsp;drawing (right arrow),perceptual,3000.0,,/static/object_pics/picture_sea/piranha.jpg,7000.0,animate,photo,1007.4747669832929,True,,MEM,MEM_0073,2022-12-08 22:24:34
,visual-trial,19,276779,0.0-19.0,,,,,1211.0,,,arrowright,animate (left arrow)&emsp;&emsp;&emsp;&emsp;inanimate (right arrow),semantic,3000.0,,/static/object_pics/picture_electronic/microphone.jpg,7000.0,inanimate,photo,730.9933667111459,True,,MEM,MEM_0073,2022-12-08 22:24:34
,visual-trial,20,281923,0.0-20.0,,,,,814.0,,,arrowright,animate (left arrow)&emsp;&emsp;&emsp;&emsp;inanimate (right arrow),semantic,3000.0,,/static/object_pics/drawing_mammal/bull.jpg,7000.0,animate,drawing,1326.5442146576438,False,,MEM,MEM_0073,2022-12-08 22:24:34
,visual-trial,21,286530,0.0-21.0,,,,,1052.0,,,arrowright,animate (left arrow)&emsp;&emsp;&emsp;&emsp;inanimate (right arrow),semantic,3000.0,,/static/object_pics/drawing_veggie/aubergine.jpg,7000.0,inanimate,drawing,547.2404829588478,True,,MEM,MEM_0073,2022-12-08 22:24:34
,visual-trial,22,292178,0.0-22.0,,,,,1228.0,,,arrowright,photo (left arrow)&emsp;&emsp;&emsp;&emsp;drawing (right arrow),perceptual,3000.0,,/static/object_pics/drawing_bird/canary.jpg,7000.0,animate,drawing,1414.2372857396501,True,,MEM,MEM_0073,2022-12-08 22:24:34
,visual-trial,23,296551,0.0-23.0,,,,,801.0,,,arrowleft,photo (left arrow)&emsp;&emsp;&emsp;&emsp;drawing (right arrow),perceptual,3000.0,,/static/object_pics/picture_fruit/papaya.jpg,7000.0,inanimate,photo,564.2157748452908,True,,MEM,MEM_0073,2022-12-08 22:24:34
,visual-trial,24,301472,0.0-24.0,,,,,843.0,,,arrowleft,photo (left arrow)&emsp;&emsp;&emsp;&emsp;drawing (right arrow),perceptual,3000.0,,/static/object_pics/picture_electronic/keyboard.jpg,7000.0,inanimate,photo,1073.1708299138802,True,,MEM,MEM_0073,2022-12-08 22:24:34
,visual-trial,25,306322,0.0-25.0,,,,,763.0,,,arrowleft,photo (left arrow)&emsp;&emsp;&emsp;&emsp;drawing (right arrow),perceptual,3000.0,,/static/object_pics/picture_sea/jellyfish.jpg,7000.0,animate,photo,1077.750690827275,True,,MEM,MEM_0073,2022-12-08 22:24:34
,visual-trial,26,311042,0.0-26.0,,,,,707.0,,,arrowleft,photo (left arrow)&emsp;&emsp;&emsp;&emsp;drawing (right arrow),perceptual,3000.0,,/static/object_pics/picture_sea/swordfish.jpg,7000.0,animate,photo,1005.9344176420486,True,,MEM,MEM_0073,2022-12-08 22:24:34
,visual-trial,27,315601,0.0-27.0,,,,,677.0,,,arrowleft,photo (left arrow)&emsp;&emsp;&emsp;&emsp;drawing (right arrow),perceptual,3000.0,,/static/object_pics/picture_electronic/satellite dish.jpg,7000.0,inanimate,photo,877.5187073161619,True,,MEM,MEM_0073,2022-12-08 22:24:34
,visual-trial,28,319960,0.0-28.0,,,,,769.0,,,arrowleft,animate (left arrow)&emsp;&emsp;&emsp;&emsp;inanimate (right arrow),semantic,3000.0,,/static/object_pics/picture_sea/shark.jpg,7000.0,animate,photo,580.981845783203,True,,MEM,MEM_0073,2022-12-08 22:24:34
,visual-trial,29,325315,0.0-29.0,,,,,1025.0,,,arrowright,photo (left arrow)&emsp;&emsp;&emsp;&emsp;drawing (right arrow),perceptual,3000.0,,/static/object_pics/drawing_veggie/onions.jpg,7000.0,inanimate,drawing,1324.5170894326625,True,,MEM,MEM_0073,2022-12-08 22:24:34
,visual-trial,30,330112,0.0-30.0,,,,,886.0,,,arrowleft,animate (left arrow)&emsp;&emsp;&emsp;&emsp;inanimate (right arrow),semantic,3000.0,,/static/object_pics/picture_fruit/strawberry.jpg,7000.0,inanimate,photo,902.7459177642356,False,,MEM,MEM_0073,2022-12-08 22:24:34
,visual-trial,31,334965,0.0-31.0,,,,,966.0,,,arrowleft,photo (left arrow)&emsp;&emsp;&emsp;&emsp;drawing (right arrow),perceptual,3000.0,,/static/object_pics/picture_fruit/banana.jpg,7000.0,inanimate,photo,881.9552463507828,True,,MEM,MEM_0073,2022-12-08 22:24:34
,visual-trial,32,339674,0.0-32.0,,,,,683.0,,,arrowleft,animate (left arrow)&emsp;&emsp;&emsp;&emsp;inanimate (right arrow),semantic,3000.0,,/static/object_pics/picture_fruit/pineapple.jpg,7000.0,inanimate,photo,1020.7827703844472,False,,MEM,MEM_0073,2022-12-08 22:24:34
,visual-trial,33,344582,0.0-33.0,,,,,748.0,,,arrowright,animate (left arrow)&emsp;&emsp;&emsp;&emsp;inanimate (right arrow),semantic,3000.0,,/static/object_pics/drawing_veggie/carrots.jpg,7000.0,inanimate,drawing,1151.2226174293137,True,,MEM,MEM_0073,2022-12-08 22:24:34
,visual-trial,34,348846,0.0-34.0,,,,,643.0,,,arrowright,photo (left arrow)&emsp;&emsp;&emsp;&emsp;drawing (right arrow),perceptual,3000.0,,/static/object_pics/drawing_mammal/bear.jpg,7000.0,animate,drawing,610.541850170038,True,,MEM,MEM_0073,2022-12-08 22:24:34
,visual-trial,35,353821,0.0-35.0,,,,,572.0,,,arrowright,animate (left arrow)&emsp;&emsp;&emsp;&emsp;inanimate (right arrow),semantic,3000.0,,/static/object_pics/drawing_bird/peacock.jpg,7000.0,animate,drawing,1395.92401666213,False,,MEM,MEM_0073,2022-12-08 22:24:34
,visual-trial,36,358490,0.0-36.0,,,,,677.0,,,arrowleft,photo (left arrow)&emsp;&emsp;&emsp;&emsp;drawing (right arrow),perceptual,3000.0,,/static/object_pics/picture_electronic/remote control.jpg,7000.0,inanimate,photo,983.6764944584178,True,,MEM,MEM_0073,2022-12-08 22:24:34
,visual-trial,37,362980,0.0-37.0,,,,,678.0,,,arrowright,animate (left arrow)&emsp;&emsp;&emsp;&emsp;inanimate (right arrow),semantic,3000.0,,/static/object_pics/drawing_veggie/pepper.jpg,7000.0,inanimate,drawing,806.7599311741649,True,,MEM,MEM_0073,2022-12-08 22:24:34
,visual-trial,38,367836,0.0-38.0,,,,,713.0,,,arrowleft,animate (left arrow)&emsp;&emsp;&emsp;&emsp;inanimate (right arrow),semantic,3000.0,,/static/object_pics/picture_electronic/coffee maker.jpg,7000.0,inanimate,photo,1137.2311815874182,False,,MEM,MEM_0073,2022-12-08 22:24:34
,visual-trial,39,372421,0.0-39.0,,,,,732.0,,,arrowright,animate (left arrow)&emsp;&emsp;&emsp;&emsp;inanimate (right arrow),semantic,3000.0,,/static/object_pics/drawing_mammal/sheep.jpg,7000.0,animate,drawing,844.7167526927124,False,,MEM,MEM_0073,2022-12-08 22:24:34
,visual-trial,40,377081,0.0-40.0,,,,,758.0,,,arrowleft,animate (left arrow)&emsp;&emsp;&emsp;&emsp;inanimate (right arrow),semantic,3000.0,,/static/object_pics/picture_sea/eel.jpg,7000.0,animate,photo,896.3604711049334,True,,MEM,MEM_0073,2022-12-08 22:24:34
,visual-trial,41,382327,0.0-41.0,,,,,767.0,,,arrowright,photo (left arrow)&emsp;&emsp;&emsp;&emsp;drawing (right arrow),perceptual,3000.0,,/static/object_pics/drawing_clothe/sock.jpg,7000.0,inanimate,drawing,1473.283382310437,True,,MEM,MEM_0073,2022-12-08 22:24:34
,html-keyboard-response,42,410249,0.0-42.0,,,,,27919.0,"
        <p>In that last set of trials, you were correct 81% of the time.</p>
        <p>Feel free to take a brief break. In the next set of trials, you will continue with the same task.
        The instructions are displayed below, in case you need a refresher.
        Press the space bar when you are ready to continue.</p>
        <p>In this task, you will see a series of objects. On some trials, your job is to determine
        whether the object shown is a color photograph or a line drawing. On other trials, your job
        is to determine whether the object represented is animate or inanimate.

        <br><br>
        You will know which response to make depending on the initial display, which will say
        ""animate / inanimate"" or ""photo / drawing"".
        <br>
        You will be able to use the left arrow key to report animate/photo and the right arrow key to report inanimate/drawing.
        <br>
        Please respond as quickly as possible, and use your dominant hand to make your responses.
        <br><br>
        You will be able to use the left arrow key to report animate/photo and the right arrow key to report inanimate/drawing.
        <br><br>
        <img src=""/static/instructions_pics/visual_pic.png"" height=""300px"">
        <br>
        In the example in the top row, the correct response is animate (left arrow key). In the example in the bottom row, the correct response is photo (left arrow key).
        <br>
        <br>When you are ready to begin, press the space bar.</p>", ,,,,,,,,,,,,,MEM,MEM_0073,2022-12-08 22:24:34
,visual-trial,43,414911,0.0-43.0,,,,,939.0,,,arrowleft,animate (left arrow)&emsp;&emsp;&emsp;&emsp;inanimate (right arrow),semantic,3000.0,,/static/object_pics/picture_fruit/cherry.jpg,7000.0,inanimate,photo,712.6857834739861,False,,MEM,MEM_0073,2022-12-08 22:24:34
,visual-trial,44,419929,0.0-44.0,,,,,935.0,,,arrowright,photo (left arrow)&emsp;&emsp;&emsp;&emsp;drawing (right arrow),perceptual,3000.0,,/static/object_pics/drawing_veggie/beetroot.jpg,7000.0,inanimate,drawing,1078.0291988673252,True,,MEM,MEM_0073,2022-12-08 22:24:34
,visual-trial,45,424563,0.0-45.0,,,,,901.0,,,arrowright,animate (left arrow)&emsp;&emsp;&emsp;&emsp;inanimate (right arrow),semantic,3000.0,,/static/object_pics/picture_electronic/handmixer.jpg,7000.0,inanimate,photo,724.727464863038,True,,MEM,MEM_0073,2022-12-08 22:24:34
,visual-trial,46,429549,0.0-46.0,,,,,618.0,,,arrowright,photo (left arrow)&emsp;&emsp;&emsp;&emsp;drawing (right arrow),perceptual,3000.0,,/static/object_pics/drawing_veggie/cucumber.jpg,7000.0,inanimate,drawing,1357.8812414203462,True,,MEM,MEM_0073,2022-12-08 22:24:34
,visual-trial,47,434295,0.0-47.0,,,,,1028.0,,,arrowleft,animate (left arrow)&emsp;&emsp;&emsp;&emsp;inanimate (right arrow),semantic,3000.0,,/static/object_pics/picture_fruit/apple.jpg,7000.0,inanimate,photo,709.8943999198275,False,,MEM,MEM_0073,2022-12-08 22:24:34
,visual-trial,48,438574,0.0-48.0,,,,,700.0,,,arrowright,animate (left arrow)&emsp;&emsp;&emsp;&emsp;inanimate (right arrow),semantic,3000.0,,/static/object_pics/drawing_mammal/gorilla.jpg,7000.0,animate,drawing,571.3206512880308,False,,MEM,MEM_0073,2022-12-08 22:24:34
,visual-trial,49,443584,0.0-49.0,,,,,1114.0,,,arrowleft,animate (left arrow)&emsp;&emsp;&emsp;&emsp;inanimate (right arrow),semantic,3000.0,,/static/object_pics/picture_insect/beetle.jpg,7000.0,animate,photo,891.9927196693832,True,,MEM,MEM_0073,2022-12-08 22:24:34
,visual-trial,50,448269,0.0-50.0,,,,,924.0,,,arrowright,photo (left arrow)&emsp;&emsp;&emsp;&emsp;drawing (right arrow),perceptual,3000.0,,/static/object_pics/drawing_clothe/jeans.jpg,7000.0,inanimate,drawing,757.2247049591994,True,,MEM,MEM_0073,2022-12-08 22:24:34
,visual-trial,51,452624,0.0-51.0,,,,,773.0,,,arrowleft,animate (left arrow)&emsp;&emsp;&emsp;&emsp;inanimate (right arrow),semantic,3000.0,,/static/object_pics/picture_insect/spider.jpg,7000.0,animate,photo,577.8557315617286,True,,MEM,MEM_0073,2022-12-08 22:24:34
,visual-trial,52,457691,0.0-52.0,,,,,722.0,,,arrowleft,photo (left arrow)&emsp;&emsp;&emsp;&emsp;drawing (right arrow),perceptual,3000.0,,/static/object_pics/picture_sea/dolphin.jpg,7000.0,animate,photo,1337.8204723347699,True,,MEM,MEM_0073,2022-12-08 22:24:34
,visual-trial,53,462106,0.0-53.0,,,,,695.0,,,arrowright,photo (left arrow)&emsp;&emsp;&emsp;&emsp;drawing (right arrow),perceptual,3000.0,,/static/object_pics/drawing_veggie/mushrooms.jpg,7000.0,inanimate,drawing,712.4316636267484,True,,MEM,MEM_0073,2022-12-08 22:24:34
,visual-trial,54,467273,0.0-54.0,,,,,728.0,,,arrowleft,photo (left arrow)&emsp;&emsp;&emsp;&emsp;drawing (right arrow),perceptual,3000.0,,/static/object_pics/picture_electronic/laptop.jpg,7000.0,inanimate,photo,1434.7210001780932,True,,MEM,MEM_0073,2022-12-08 22:24:34
,visual-trial,55,472391,0.0-55.0,,,,,737.0,,,arrowleft,photo (left arrow)&emsp;&emsp;&emsp;&emsp;drawing (right arrow),perceptual,3000.0,,/static/object_pics/picture_insect/butterfly.jpg,7000.0,animate,photo,1377.245333851996,True,,MEM,MEM_0073,2022-12-08 22:24:34
,visual-trial,56,477166,0.0-56.0,,,,,974.0,,,arrowright,animate (left arrow)&emsp;&emsp;&emsp;&emsp;inanimate (right arrow),semantic,3000.0,,/static/object_pics/picture_electronic/radio02.jpg,7000.0,inanimate,photo,797.9559021115905,True,,MEM,MEM_0073,2022-12-08 22:24:34
,visual-trial,57,481660,0.0-57.0,,,,,741.0,,,arrowright,animate (left arrow)&emsp;&emsp;&emsp;&emsp;inanimate (right arrow),semantic,3000.0,,/static/object_pics/drawing_veggie/tomato.jpg,7000.0,inanimate,drawing,745.3847611399144,True,,MEM,MEM_0073,2022-12-08 22:24:34
,visual-trial,58,486154,0.0-58.0,,,,,740.0,,,arrowleft,animate (left arrow)&emsp;&emsp;&emsp;&emsp;inanimate (right arrow),semantic,3000.0,,/static/object_pics/picture_insect/scorpion.jpg,7000.0,animate,photo,744.9354287881566,True,,MEM,MEM_0073,2022-12-08 22:24:34
,visual-trial,59,490817,0.0-59.0,,,,,750.0,,,arrowright,animate (left arrow)&emsp;&emsp;&emsp;&emsp;inanimate (right arrow),semantic,3000.0,,/static/object_pics/drawing_clothe/bowtie.jpg,7000.0,inanimate,drawing,904.3332822184118,True,,MEM,MEM_0073,2022-12-08 22:24:34
,visual-trial,60,495298,0.0-60.0,,,,,787.0,,,arrowleft,photo (left arrow)&emsp;&emsp;&emsp;&emsp;drawing (right arrow),perceptual,3000.0,,/static/object_pics/picture_fruit/pear.jpg,7000.0,inanimate,photo,684.0274884201863,True,,MEM,MEM_0073,2022-12-08 22:24:34
,visual-trial,61,500426,0.0-61.0,,,,,717.0,,,arrowright,photo (left arrow)&emsp;&emsp;&emsp;&emsp;drawing (right arrow),perceptual,3000.0,,/static/object_pics/drawing_mammal/squirrel.jpg,7000.0,animate,drawing,1403.1061752172975,True,,MEM,MEM_0073,2022-12-08 22:24:34
,visual-trial,62,505195,0.0-62.0,,,,,812.0,,,arrowleft,photo (left arrow)&emsp;&emsp;&emsp;&emsp;drawing (right arrow),perceptual,3000.0,,/static/object_pics/picture_insect/fly.jpg,7000.0,animate,photo,954.2817754667174,True,,MEM,MEM_0073,2022-12-08 22:24:34
,visual-trial,63,510133,0.0-63.0,,,,,688.0,,,arrowright,animate (left arrow)&emsp;&emsp;&emsp;&emsp;inanimate (right arrow),semantic,3000.0,,/static/object_pics/drawing_clothe/tie.jpg,7000.0,inanimate,drawing,1243.744155909481,True,,MEM,MEM_0073,2022-12-08 22:24:34
,visual-trial,64,514733,0.0-64.0,,,,,685.0,,,arrowright,animate (left arrow)&emsp;&emsp;&emsp;&emsp;inanimate (right arrow),semantic,3000.0,,/static/object_pics/drawing_mammal/wolf.jpg,7000.0,animate,drawing,912.7414987974827,False,,MEM,MEM_0073,2022-12-08 22:24:34
,visual-trial,65,519243,0.0-65.0,,,,,847.0,,,arrowright,animate (left arrow)&emsp;&emsp;&emsp;&emsp;inanimate (right arrow),semantic,3000.0,,/static/object_pics/drawing_mammal/horse.jpg,7000.0,animate,drawing,656.2978028307717,False,,MEM,MEM_0073,2022-12-08 22:24:34
,visual-trial,66,524191,0.0-66.0,,,,,717.0,,,arrowright,animate (left arrow)&emsp;&emsp;&emsp;&emsp;inanimate (right arrow),semantic,3000.0,,/static/object_pics/drawing_clothe/belt.jpg,7000.0,inanimate,drawing,1221.1905686228702,True,,MEM,MEM_0073,2022-12-08 22:24:34
,visual-trial,67,528720,0.0-67.0,,,,,716.0,,,arrowleft,animate (left arrow)&emsp;&emsp;&emsp;&emsp;inanimate (right arrow),semantic,3000.0,,/static/object_pics/picture_fruit/watermelon.jpg,7000.0,inanimate,photo,809.196695560074,False,,MEM,MEM_0073,2022-12-08 22:24:34
,visual-trial,68,533469,0.0-68.0,,,,,785.0,,,arrowleft,animate (left arrow)&emsp;&emsp;&emsp;&emsp;inanimate (right arrow),semantic,3000.0,,/static/object_pics/picture_sea/seal.jpg,7000.0,animate,photo,955.8658017987689,True,,MEM,MEM_0073,2022-12-08 22:24:34
,visual-trial,69,537752,0.0-69.0,,,,,660.0,,,arrowright,photo (left arrow)&emsp;&emsp;&emsp;&emsp;drawing (right arrow),perceptual,3000.0,,/static/object_pics/drawing_bird/eagle.jpg,7000.0,animate,drawing,618.871944946286,True,,MEM,MEM_0073,2022-12-08 22:24:34
,visual-trial,70,542709,0.0-70.0,,,,,950.0,,,arrowleft,animate (left arrow)&emsp;&emsp;&emsp;&emsp;inanimate (right arrow),semantic,3000.0,,/static/object_pics/picture_insect/bumble bee.jpg,7000.0,animate,photo,998.046408236789,True,,MEM,MEM_0073,2022-12-08 22:24:34
,visual-trial,71,547533,0.0-71.0,,,,,697.0,,,arrowleft,photo (left arrow)&emsp;&emsp;&emsp;&emsp;drawing (right arrow),perceptual,3000.0,,/static/object_pics/picture_sea/shrimp.jpg,7000.0,animate,photo,1119.2777102414448,True,,MEM,MEM_0073,2022-12-08 22:24:34
,visual-trial,72,552212,0.0-72.0,,,,,691.0,,,arrowright,animate (left arrow)&emsp;&emsp;&emsp;&emsp;inanimate (right arrow),semantic,3000.0,,/static/object_pics/drawing_clothe/sport t-shirt.jpg,7000.0,inanimate,drawing,976.2612654770144,True,,MEM,MEM_0073,2022-12-08 22:24:34
,visual-trial,73,557247,0.0-73.0,,,,,780.0,,,arrowright,photo (left arrow)&emsp;&emsp;&emsp;&emsp;drawing (right arrow),perceptual,3000.0,,/static/object_pics/drawing_veggie/potato.jpg,7000.0,inanimate,drawing,1253.3689922274793,True,,MEM,MEM_0073,2022-12-08 22:24:34
,visual-trial,74,562682,0.0-74.0,,,,,975.0,,,arrowleft,photo (left arrow)&emsp;&emsp;&emsp;&emsp;drawing (right arrow),perceptual,3000.0,,/static/object_pics/picture_insect/centipede.jpg,7000.0,animate,photo,1451.8827547403987,True,,MEM,MEM_0073,2022-12-08 22:24:34
,html-keyboard-response,75,574741,0.0-75.0,,,,,12058.0,"
        <p>In that last set of trials, you were correct 81% of the time.</p>
        <p>Feel free to take a brief break. In the next set of trials, you will continue with the same task.
        The instructions are displayed below, in case you need a refresher.
        Press the space bar when you are ready to continue.</p>
        <p>In this task, you will see a series of objects. On some trials, your job is to determine
        whether the object shown is a color photograph or a line drawing. On other trials, your job
        is to determine whether the object represented is animate or inanimate.

        <br><br>
        You will know which response to make depending on the initial display, which will say
        ""animate / inanimate"" or ""photo / drawing"".
        <br>
        You will be able to use the left arrow key to report animate/photo and the right arrow key to report inanimate/drawing.
        <br>
        Please respond as quickly as possible, and use your dominant hand to make your responses.
        <br><br>
        You will be able to use the left arrow key to report animate/photo and the right arrow key to report inanimate/drawing.
        <br><br>
        <img src=""/static/instructions_pics/visual_pic.png"" height=""300px"">
        <br>
        In the example in the top row, the correct response is animate (left arrow key). In the example in the bottom row, the correct response is photo (left arrow key).
        <br>
        <br>When you are ready to begin, press the space bar.</p>", ,,,,,,,,,,,,,MEM,MEM_0073,2022-12-08 22:24:34
,visual-trial,76,579317,0.0-76.0,,,,,843.0,,,arrowright,photo (left arrow)&emsp;&emsp;&emsp;&emsp;drawing (right arrow),perceptual,3000.0,,/static/object_pics/drawing_clothe/shirt.jpg,7000.0,inanimate,drawing,725.5402853757522,True,,MEM,MEM_0073,2022-12-08 22:24:34
,visual-trial,77,584616,0.0-77.0,,,,,1430.0,,,arrowright,animate (left arrow)&emsp;&emsp;&emsp;&emsp;inanimate (right arrow),semantic,3000.0,,/static/object_pics/picture_electronic/computer mouse.jpg,7000.0,inanimate,photo,865.9241906112005,True,,MEM,MEM_0073,2022-12-08 22:24:34
,visual-trial,78,589654,0.0-78.0,,,,,638.0,,,arrowleft,photo (left arrow)&emsp;&emsp;&emsp;&emsp;drawing (right arrow),perceptual,3000.0,,/static/object_pics/picture_electronic/camera.jpg,7000.0,inanimate,photo,1391.8481470321647,True,,MEM,MEM_0073,2022-12-08 22:24:34
,visual-trial,79,593833,0.0-79.0,,,,,596.0,,,arrowright,photo (left arrow)&emsp;&emsp;&emsp;&emsp;drawing (right arrow),perceptual,3000.0,,/static/object_pics/drawing_clothe/dress.jpg,7000.0,inanimate,drawing,571.366747710895,True,,MEM,MEM_0073,2022-12-08 22:24:34
,visual-trial,80,598964,0.0-80.0,,,,,763.0,,,arrowright,animate (left arrow)&emsp;&emsp;&emsp;&emsp;inanimate (right arrow),semantic,3000.0,,/static/object_pics/picture_electronic/gamepad.jpg,7000.0,inanimate,photo,1355.3739995342014,True,,MEM,MEM_0073,2022-12-08 22:24:34
,visual-trial,81,603643,0.0-81.0,,,,,889.0,,,arrowright,animate (left arrow)&emsp;&emsp;&emsp;&emsp;inanimate (right arrow),semantic,3000.0,,/static/object_pics/drawing_veggie/asparagus.jpg,7000.0,inanimate,drawing,785.0800157897907,True,,MEM,MEM_0073,2022-12-08 22:24:34
,visual-trial,82,608229,0.0-82.0,,,,,760.0,,,arrowleft,photo (left arrow)&emsp;&emsp;&emsp;&emsp;drawing (right arrow),perceptual,3000.0,,/static/object_pics/picture_sea/crab.jpg,7000.0,animate,photo,817.3947051441658,True,,MEM,MEM_0073,2022-12-08 22:24:34
,visual-trial,83,613124,0.0-83.0,,,,,994.0,,,arrowleft,photo (left arrow)&emsp;&emsp;&emsp;&emsp;drawing (right arrow),perceptual,3000.0,,/static/object_pics/picture_insect/mosquito.jpg,7000.0,animate,photo,894.1343414448304,True,,MEM,MEM_0073,2022-12-08 22:24:34
,visual-trial,84,617955,0.0-84.0,,,,,890.0,,,arrowleft,photo (left arrow)&emsp;&emsp;&emsp;&emsp;drawing (right arrow),perceptual,3000.0,,/static/object_pics/picture_insect/snail.jpg,7000.0,animate,photo,934.4749872632362,True,,MEM,MEM_0073,2022-12-08 22:24:34
,visual-trial,85,622551,0.0-85.0,,,,,795.0,,,arrowleft,photo (left arrow)&emsp;&emsp;&emsp;&emsp;drawing (right arrow),perceptual,3000.0,,/static/object_pics/picture_electronic/phone.jpg,7000.0,inanimate,photo,799.0947101739123,True,,MEM,MEM_0073,2022-12-08 22:24:34
,visual-trial,86,627532,0.0-86.0,,,,,643.0,,,arrowright,photo (left arrow)&emsp;&emsp;&emsp;&emsp;drawing (right arrow),perceptual,3000.0,,/static/object_pics/drawing_bird/hen.jpg,7000.0,animate,drawing,1329.6867570878708,True,,MEM,MEM_0073,2022-12-08 22:24:34
,visual-trial,87,632750,0.0-87.0,,,,,746.0,,,arrowright,animate (left arrow)&emsp;&emsp;&emsp;&emsp;inanimate (right arrow),semantic,3000.0,,/static/object_pics/drawing_clothe/football sneaker.jpg,7000.0,inanimate,drawing,1465.1964231751572,True,,MEM,MEM_0073,2022-12-08 22:24:34
,visual-trial,88,638282,0.0-88.0,,,,,1139.0,,,arrowleft,animate (left arrow)&emsp;&emsp;&emsp;&emsp;inanimate (right arrow),semantic,3000.0,,/static/object_pics/picture_sea/octopus.jpg,7000.0,animate,photo,1389.9628821051178,True,,MEM,MEM_0073,2022-12-08 22:24:34
,visual-trial,89,643231,0.0-89.0,,,,,717.0,,,arrowright,photo (left arrow)&emsp;&emsp;&emsp;&emsp;drawing (right arrow),perceptual,3000.0,,/static/object_pics/drawing_mammal/giraffe.jpg,7000.0,animate,drawing,1226.9383291044019,True,,MEM,MEM_0073,2022-12-08 22:24:34
,visual-trial,90,647954,0.0-90.0,,,,,721.0,,,arrowright,photo (left arrow)&emsp;&emsp;&emsp;&emsp;drawing (right arrow),perceptual,3000.0,,/static/object_pics/drawing_mammal/kangaroo.jpg,7000.0,animate,drawing,996.2217988294408,True,,MEM,MEM_0073,2022-12-08 22:24:34
,visual-trial,91,653018,0.0-91.0,,,,,844.0,,,arrowright,animate (left arrow)&emsp;&emsp;&emsp;&emsp;inanimate (right arrow),semantic,3000.0,,/static/object_pics/drawing_bird/pelican.jpg,7000.0,animate,drawing,1211.060816001374,False,,MEM,MEM_0073,2022-12-08 22:24:34
,visual-trial,92,658507,0.0-92.0,,,,,1114.0,,,arrowright,animate (left arrow)&emsp;&emsp;&emsp;&emsp;inanimate (right arrow),semantic,3000.0,,/static/object_pics/drawing_mammal/lion.jpg,7000.0,animate,drawing,1369.0236916159092,False,,MEM,MEM_0073,2022-12-08 22:24:34
,visual-trial,93,663336,0.0-93.0,,,,,1192.0,,,arrowright,animate (left arrow)&emsp;&emsp;&emsp;&emsp;inanimate (right arrow),semantic,3000.0,,/static/object_pics/picture_electronic/printer.jpg,7000.0,inanimate,photo,629.1540010721114,True,,MEM,MEM_0073,2022-12-08 22:24:34
,visual-trial,94,668660,0.0-94.0,,,,,1287.0,,,arrowleft,animate (left arrow)&emsp;&emsp;&emsp;&emsp;inanimate (right arrow),semantic,3000.0,,/static/object_pics/picture_insect/ladybug.jpg,7000.0,animate,photo,1027.7420843232217,True,,MEM,MEM_0073,2022-12-08 22:24:34
,visual-trial,95,673485,0.0-95.0,,,,,679.0,,,arrowright,animate (left arrow)&emsp;&emsp;&emsp;&emsp;inanimate (right arrow),semantic,3000.0,,/static/object_pics/drawing_mammal/rabbit.jpg,7000.0,animate,drawing,1140.1807097292312,False,,MEM,MEM_0073,2022-12-08 22:24:34
,visual-trial,96,678818,0.0-96.0,,,,,847.0,,,arrowright,animate (left arrow)&emsp;&emsp;&emsp;&emsp;inanimate (right arrow),semantic,3000.0,,/static/object_pics/drawing_bird/turkey.jpg,7000.0,animate,drawing,1477.7186953928026,False,,MEM,MEM_0073,2022-12-08 22:24:34
,visual-trial,97,683239,0.0-97.0,,,,,822.0,,,arrowleft,photo (left arrow)&emsp;&emsp;&emsp;&emsp;drawing (right arrow),perceptual,3000.0,,/static/object_pics/picture_insect/grasshopper.jpg,7000.0,animate,photo,592.7904017300402,True,,MEM,MEM_0073,2022-12-08 22:24:34
,visual-trial,98,688717,0.0-98.0,,,,,1351.0,,,arrowleft,animate (left arrow)&emsp;&emsp;&emsp;&emsp;inanimate (right arrow),semantic,3000.0,,/static/object_pics/picture_fruit/coconut.jpg,7000.0,inanimate,photo,1123.547368760022,False,,MEM,MEM_0073,2022-12-08 22:24:34
,visual-trial,99,693922,0.0-99.0,,,,,791.0,,,arrowright,photo (left arrow)&emsp;&emsp;&emsp;&emsp;drawing (right arrow),perceptual,3000.0,,/static/object_pics/drawing_bird/pigeon.jpg,7000.0,animate,drawing,1405.0390048964139,True,,MEM,MEM_0073,2022-12-08 22:24:34
,visual-trial,100,698906,0.0-100.0,,,,,682.0,,,arrowleft,photo (left arrow)&emsp;&emsp;&emsp;&emsp;drawing (right arrow),perceptual,3000.0,,/static/object_pics/picture_fruit/apricot.jpg,7000.0,inanimate,photo,1297.4177245992237,True,,MEM,MEM_0073,2022-12-08 22:24:34
,visual-trial,101,703606,0.0-101.0,,,,,844.0,,,arrowright,photo (left arrow)&emsp;&emsp;&emsp;&emsp;drawing (right arrow),perceptual,3000.0,,/static/object_pics/drawing_clothe/slipper.jpg,7000.0,inanimate,drawing,848.9867983227317,True,,MEM,MEM_0073,2022-12-08 22:24:34
,visual-trial,102,708935,0.0-102.0,,,,,855.0,,,arrowleft,photo (left arrow)&emsp;&emsp;&emsp;&emsp;drawing (right arrow),perceptual,3000.0,,/static/object_pics/picture_fruit/orange.jpg,7000.0,inanimate,photo,1466.1303023471664,True,,MEM,MEM_0073,2022-12-08 22:24:34
,visual-trial,103,713452,0.0-103.0,,,,,779.0,,,arrowleft,photo (left arrow)&emsp;&emsp;&emsp;&emsp;drawing (right arrow),perceptual,3000.0,,/static/object_pics/picture_insect/worm.jpg,7000.0,animate,photo,730.2335002234499,True,,MEM,MEM_0073,2022-12-08 22:24:34
,visual-trial,104,718446,0.0-104.0,,,,,712.0,,,arrowright,animate (left arrow)&emsp;&emsp;&emsp;&emsp;inanimate (right arrow),semantic,3000.0,,/static/object_pics/drawing_bird/flamingo.jpg,7000.0,animate,drawing,1273.8325650521397,False,,MEM,MEM_0073,2022-12-08 22:24:34
,visual-trial,105,723719,0.0-105.0,,,,,785.0,,,arrowright,animate (left arrow)&emsp;&emsp;&emsp;&emsp;inanimate (right arrow),semantic,3000.0,,/static/object_pics/drawing_bird/parrot.jpg,7000.0,animate,drawing,1480.3701667415612,False,,MEM,MEM_0073,2022-12-08 22:24:34
,visual-trial,106,728252,0.0-106.0,,,,,874.0,,,arrowleft,photo (left arrow)&emsp;&emsp;&emsp;&emsp;drawing (right arrow),perceptual,3000.0,,/static/object_pics/picture_fruit/lemon.jpg,7000.0,inanimate,photo,647.2638963376082,True,,MEM,MEM_0073,2022-12-08 22:24:34
,visual-trial,107,733166,0.0-107.0,,,,,723.0,,,arrowright,photo (left arrow)&emsp;&emsp;&emsp;&emsp;drawing (right arrow),perceptual,3000.0,,/static/object_pics/drawing_mammal/rhinoceros.jpg,7000.0,animate,drawing,1183.8926600055788,True,,MEM,MEM_0073,2022-12-08 22:24:34
,html-keyboard-response,108,778982,0.0-108.0,,,,,45815.0,"
        <p>In that last set of trials, you were correct 78% of the time.</p>
        <p>Feel free to take a brief break. In the next set of trials, you will continue with the same task.
        The instructions are displayed below, in case you need a refresher.
        Press the space bar when you are ready to continue.</p>
        <p>In this task, you will see a series of objects. On some trials, your job is to determine
        whether the object shown is a color photograph or a line drawing. On other trials, your job
        is to determine whether the object represented is animate or inanimate.

        <br><br>
        You will know which response to make depending on the initial display, which will say
        ""animate / inanimate"" or ""photo / drawing"".
        <br>
        You will be able to use the left arrow key to report animate/photo and the right arrow key to report inanimate/drawing.
        <br>
        Please respond as quickly as possible, and use your dominant hand to make your responses.
        <br><br>
        You will be able to use the left arrow key to report animate/photo and the right arrow key to report inanimate/drawing.
        <br><br>
        <img src=""/static/instructions_pics/visual_pic.png"" height=""300px"">
        <br>
        In the example in the top row, the correct response is animate (left arrow key). In the example in the bottom row, the correct response is photo (left arrow key).
        <br>
        <br>When you are ready to begin, press the space bar.</p>", ,,,,,,,,,,,,,MEM,MEM_0073,2022-12-08 22:24:34
,visual-trial,109,784142,0.0-109.0,,,,,1102.0,,,arrowright,photo (left arrow)&emsp;&emsp;&emsp;&emsp;drawing (right arrow),perceptual,3000.0,,/static/object_pics/picture_electronic/hairdryer.jpg,7000.0,inanimate,photo,1049.2190151587383,False,,MEM,MEM_0073,2022-12-08 22:24:34
,visual-trial,110,789243,0.0-110.0,,,,,1153.0,,,arrowright,photo (left arrow)&emsp;&emsp;&emsp;&emsp;drawing (right arrow),perceptual,3000.0,,/static/object_pics/drawing_mammal/bison.jpg,7000.0,animate,drawing,939.8779063809545,True,,MEM,MEM_0073,2022-12-08 22:24:34
,visual-trial,111,793688,0.0-111.0,,,,,794.0,,,arrowright,photo (left arrow)&emsp;&emsp;&emsp;&emsp;drawing (right arrow),perceptual,3000.0,,/static/object_pics/drawing_veggie/pumpkin.jpg,7000.0,inanimate,drawing,643.5922201494791,True,,MEM,MEM_0073,2022-12-08 22:24:34
,visual-trial,112,798346,0.0-112.0,,,,,615.0,,,arrowleft,photo (left arrow)&emsp;&emsp;&emsp;&emsp;drawing (right arrow),perceptual,3000.0,,/static/object_pics/picture_insect/cockroach.jpg,7000.0,animate,photo,1037.5218231975973,True,,MEM,MEM_0073,2022-12-08 22:24:34
,visual-trial,113,803417,0.0-113.0,,,,,762.0,,,arrowleft,animate (left arrow)&emsp;&emsp;&emsp;&emsp;inanimate (right arrow),semantic,3000.0,,/static/object_pics/drawing_bird/hummingbird.jpg,7000.0,animate,drawing,1301.35969840339,True,,MEM,MEM_0073,2022-12-08 22:24:34
,visual-trial,114,808785,0.0-114.0,,,,,1049.0,,,arrowright,photo (left arrow)&emsp;&emsp;&emsp;&emsp;drawing (right arrow),perceptual,3000.0,,/static/object_pics/drawing_clothe/gloves.jpg,7000.0,inanimate,drawing,1310.9621457515032,True,,MEM,MEM_0073,2022-12-08 22:24:34
,visual-trial,115,813238,0.0-115.0,,,,,655.0,,,arrowright,photo (left arrow)&emsp;&emsp;&emsp;&emsp;drawing (right arrow),perceptual,3000.0,,/static/object_pics/drawing_veggie/garlic.jpg,7000.0,inanimate,drawing,793.7031134770092,True,,MEM,MEM_0073,2022-12-08 22:24:34
,visual-trial,116,818014,0.0-116.0,,,,,1025.0,,,arrowright,photo (left arrow)&emsp;&emsp;&emsp;&emsp;drawing (right arrow),perceptual,3000.0,,/static/object_pics/drawing_bird/ostrich.jpg,7000.0,animate,drawing,744.1657456419128,True,,MEM,MEM_0073,2022-12-08 22:24:34
,visual-trial,117,823214,0.0-117.0,,,,,741.0,,,arrowleft,animate (left arrow)&emsp;&emsp;&emsp;&emsp;inanimate (right arrow),semantic,3000.0,,/static/object_pics/drawing_mammal/camel.jpg,7000.0,animate,drawing,1451.9506124828908,True,,MEM,MEM_0073,2022-12-08 22:24:34
,visual-trial,118,828316,0.0-118.0,,,,,792.0,,,arrowleft,animate (left arrow)&emsp;&emsp;&emsp;&emsp;inanimate (right arrow),semantic,3000.0,,/static/object_pics/drawing_mammal/antelope.jpg,7000.0,animate,drawing,1301.0536432904078,True,,MEM,MEM_0073,2022-12-08 22:24:34
,visual-trial,119,832657,0.0-119.0,,,,,751.0,,,arrowleft,animate (left arrow)&emsp;&emsp;&emsp;&emsp;inanimate (right arrow),semantic,3000.0,,/static/object_pics/drawing_bird/duck.jpg,7000.0,animate,drawing,583.5157836618679,True,,MEM,MEM_0073,2022-12-08 22:24:34
,visual-trial,120,837645,0.0-120.0,,,,,1084.0,,,arrowright,photo (left arrow)&emsp;&emsp;&emsp;&emsp;drawing (right arrow),perceptual,3000.0,,/static/object_pics/drawing_mammal/elephant.jpg,7000.0,animate,drawing,901.10549277987,True,,MEM,MEM_0073,2022-12-08 22:24:34
,visual-trial,121,842479,0.0-121.0,,,,,755.0,,,arrowright,animate (left arrow)&emsp;&emsp;&emsp;&emsp;inanimate (right arrow),semantic,3000.0,,/static/object_pics/drawing_clothe/glasses.jpg,7000.0,inanimate,drawing,1069.7541097557423,True,,MEM,MEM_0073,2022-12-08 22:24:34
,visual-trial,122,847746,0.0-122.0,,,,,785.0,,,arrowleft,animate (left arrow)&emsp;&emsp;&emsp;&emsp;inanimate (right arrow),semantic,3000.0,,/static/object_pics/drawing_bird/penguin.jpg,7000.0,animate,drawing,1480.946069777113,True,,MEM,MEM_0073,2022-12-08 22:24:34
,visual-trial,123,853496,0.0-123.0,,,,,1517.0,,,arrowleft,animate (left arrow)&emsp;&emsp;&emsp;&emsp;inanimate (right arrow),semantic,3000.0,,/static/object_pics/picture_fruit/kiwi.jpg,7000.0,inanimate,photo,1227.7271526550714,False,,MEM,MEM_0073,2022-12-08 22:24:34
,visual-trial,124,858498,0.0-124.0,,,,,1297.0,,,arrowleft,photo (left arrow)&emsp;&emsp;&emsp;&emsp;drawing (right arrow),perceptual,3000.0,,/static/object_pics/picture_electronic/calculator.jpg,7000.0,inanimate,photo,696.273499833764,True,,MEM,MEM_0073,2022-12-08 22:24:34
,visual-trial,125,863789,0.0-125.0,,,,,1135.0,,,arrowleft,animate (left arrow)&emsp;&emsp;&emsp;&emsp;inanimate (right arrow),semantic,3000.0,,/static/object_pics/drawing_veggie/lettuce.jpg,7000.0,inanimate,drawing,1147.9438756019472,False,,MEM,MEM_0073,2022-12-08 22:24:34
,visual-trial,126,868899,0.0-126.0,,,,,886.0,,,arrowleft,photo (left arrow)&emsp;&emsp;&emsp;&emsp;drawing (right arrow),perceptual,3000.0,,/static/object_pics/picture_sea/seaturtle.jpg,7000.0,animate,photo,1216.7959365158872,True,,MEM,MEM_0073,2022-12-08 22:24:34
,visual-trial,127,873508,0.0-127.0,,,,,782.0,,,arrowleft,photo (left arrow)&emsp;&emsp;&emsp;&emsp;drawing (right arrow),perceptual,3000.0,,/static/object_pics/picture_sea/seahorse.jpg,7000.0,animate,photo,818.585665515541,True,,MEM,MEM_0073,2022-12-08 22:24:34
,visual-trial,128,878299,0.0-128.0,,,,,864.0,,,arrowleft,animate (left arrow)&emsp;&emsp;&emsp;&emsp;inanimate (right arrow),semantic,3000.0,,/static/object_pics/picture_sea/mantaray.jpg,7000.0,animate,photo,922.1579483198406,True,,MEM,MEM_0073,2022-12-08 22:24:34
,visual-trial,129,882987,0.0-129.0,,,,,837.0,,,arrowright,photo (left arrow)&emsp;&emsp;&emsp;&emsp;drawing (right arrow),perceptual,3000.0,,/static/object_pics/drawing_clothe/scarf.jpg,7000.0,inanimate,drawing,842.1644466076796,True,,MEM,MEM_0073,2022-12-08 22:24:34
,visual-trial,130,888198,0.0-130.0,,,,,811.0,,,arrowleft,animate (left arrow)&emsp;&emsp;&emsp;&emsp;inanimate (right arrow),semantic,3000.0,,/static/object_pics/drawing_bird/owl.jpg,7000.0,animate,drawing,1395.2835643354836,True,,MEM,MEM_0073,2022-12-08 22:24:34
,visual-trial,131,893820,0.0-131.0,,,,,1233.0,,,arrowleft,photo (left arrow)&emsp;&emsp;&emsp;&emsp;drawing (right arrow),perceptual,3000.0,,/static/object_pics/picture_electronic/toaster.jpg,7000.0,inanimate,photo,1383.7843316554386,True,,MEM,MEM_0073,2022-12-08 22:24:34
,visual-trial,132,898874,0.0-132.0,,,,,874.0,,,arrowleft,animate (left arrow)&emsp;&emsp;&emsp;&emsp;inanimate (right arrow),semantic,3000.0,,/static/object_pics/drawing_bird/toucan.jpg,7000.0,animate,drawing,1176.7825681297518,True,,MEM,MEM_0073,2022-12-08 22:24:34
,visual-trial,133,903370,0.0-133.0,,,,,868.0,,,arrowleft,animate (left arrow)&emsp;&emsp;&emsp;&emsp;inanimate (right arrow),semantic,3000.0,,/static/object_pics/picture_sea/starfish02.jpg,7000.0,animate,photo,622.8018179862769,True,,MEM,MEM_0073,2022-12-08 22:24:34
,visual-trial,134,908413,0.0-134.0,,,,,669.0,,,arrowleft,photo (left arrow)&emsp;&emsp;&emsp;&emsp;drawing (right arrow),perceptual,3000.0,,/static/object_pics/picture_fruit/pomegranate.jpg,7000.0,inanimate,photo,1370.5621273022516,True,,MEM,MEM_0073,2022-12-08 22:24:34
,visual-trial,135,913331,0.0-135.0,,,,,802.0,,,arrowleft,photo (left arrow)&emsp;&emsp;&emsp;&emsp;drawing (right arrow),perceptual,3000.0,,/static/object_pics/picture_fruit/melon.jpg,7000.0,inanimate,photo,1110.5632027600204,True,,MEM,MEM_0073,2022-12-08 22:24:34
,visual-trial,136,917997,0.0-136.0,,,,,614.0,,,arrowleft,animate (left arrow)&emsp;&emsp;&emsp;&emsp;inanimate (right arrow),semantic,3000.0,,/static/object_pics/picture_insect/ant.jpg,7000.0,animate,photo,1043.866609066758,True,,MEM,MEM_0073,2022-12-08 22:24:34
,visual-trial,137,922665,0.0-137.0,,,,,799.0,,,arrowleft,animate (left arrow)&emsp;&emsp;&emsp;&emsp;inanimate (right arrow),semantic,3000.0,,/static/object_pics/picture_fruit/grapes.jpg,7000.0,inanimate,photo,859.4739041655886,False,,MEM,MEM_0073,2022-12-08 22:24:34
,visual-trial,138,927179,0.0-138.0,,,,,863.0,,,arrowleft,animate (left arrow)&emsp;&emsp;&emsp;&emsp;inanimate (right arrow),semantic,3000.0,,/static/object_pics/picture_sea/pufferfish.jpg,7000.0,animate,photo,643.204486029013,True,,MEM,MEM_0073,2022-12-08 22:24:34
,visual-trial,139,932328,0.0-139.0,,,,,1172.0,,,arrowright,photo (left arrow)&emsp;&emsp;&emsp;&emsp;drawing (right arrow),perceptual,3000.0,,/static/object_pics/drawing_clothe/hat.jpg,7000.0,inanimate,drawing,969.6011546048137,True,,MEM,MEM_0073,2022-12-08 22:24:34
,visual-trial,140,936566,0.0-140.0,,,,,715.0,,,arrowleft,animate (left arrow)&emsp;&emsp;&emsp;&emsp;inanimate (right arrow),semantic,3000.0,,/static/object_pics/picture_insect/dragonfly.jpg,7000.0,animate,photo,515.8791954422843,True,,MEM,MEM_0073,2022-12-08 22:24:34
,html-keyboard-response,141,939342,0.0-141.0,,,,,2775.0,"
      <p>Thank you for your participation!</p>
      The goal of this study is to replicate previous findings that the timing of responses in memory-dependent tasks
      is rhythmic in nature (compared to the timing of responses in memory-independent tasks).
      You performed the memory-independent tasks in this study.
      <br>
      Your participation will allow us to better understand how memory works.
      Please do not share this information with other potential participants.
      <br>
      Press the space bar to continue.</p>", ,,,,,,,,,,,,,MEM,MEM_0073,2022-12-08 22:24:34
