success,trial_type,trial_index,time_elapsed,internal_node_id,timeout,failed_images,failed_audio,failed_video,rt,stimulus,response,key,instruction,instruction_class,instruction_duration,prompt,object,object_duration,animacy,style,jitter,accurate,question_order,exp,subjectId,date
True,fullscreen,0,283919,0.0-0.0,,,,,,,,,,,,,,,,,,,,MEM,MEM_0074,2022-12-08 22:30:33
True,preload,1,288062,0.0-1.0,False,[],[],[],,,,,,,,,,,,,,,,MEM,MEM_0074,2022-12-08 22:30:33
,html-keyboard-response,2,397626,0.0-2.0,,,,,109562.0,"
      <p>In this task, you will see a series of objects. On some trials, your job is to determine
      whether the object shown is a color photograph or a line drawing. On other trials, your job
      is to determine whether the object represented is animate or inanimate.

      <br><br>
      You will know which response to make depending on the initial display, which will say
      ""animate / inanimate"" or ""photo / drawing"".
      <br>
      <br>
      You will be able to use the left arrow key to report animate/photo and the right arrow key to report inanimate/drawing.
      <br>
      Please respond as quickly as possible, and use your dominant hand to make your responses.
      <br><br>
      <img src=""/static/instructions_pics/visual_pic.png"" height=""300px"">
      <br>
      In the example in the top row, the correct response is animate (left arrow key). In the example in the bottom row, the correct response is photo (left arrow key).
      <br>
      <br>You will first do some practice trials. When you are ready to begin, press the space bar.</p>", ,,,,,,,,,,,,,MEM,MEM_0074,2022-12-08 22:30:33
,visual-trial,3,404467,0.0-3.0,,,,,2819.0,,,arrowleft,animate (left arrow)&emsp;&emsp;&emsp;&emsp;inanimate (right arrow),semantic,3000.0,,/static/for_instructions/object_pics/drawing_bird/heron.jpg,7000.0,animate,drawing,1005.7360074788669,True,,MEM,MEM_0074,2022-12-08 22:30:33
,visual-trial,4,409054,0.0-4.0,,,,,871.0,,,arrowleft,photo (left arrow)&emsp;&emsp;&emsp;&emsp;drawing (right arrow),perceptual,3000.0,,/static/for_instructions/object_pics/picture_electronic/flashlight.jpg,7000.0,inanimate,photo,705.2718328653153,True,,MEM,MEM_0074,2022-12-08 22:30:33
,visual-trial,5,414471,0.0-5.0,,,,,1152.0,,,arrowright,animate (left arrow)&emsp;&emsp;&emsp;&emsp;inanimate (right arrow),semantic,3000.0,,/static/for_instructions/object_pics/drawing_clothe/hockey helmet.jpg,7000.0,inanimate,drawing,1248.2943583367587,True,,MEM,MEM_0074,2022-12-08 22:30:33
,visual-trial,6,419362,0.0-6.0,,,,,763.0,,,arrowleft,photo (left arrow)&emsp;&emsp;&emsp;&emsp;drawing (right arrow),perceptual,3000.0,,/static/for_instructions/object_pics/picture_veggie/avocado.jpg,7000.0,inanimate,photo,1111.0420336218317,True,,MEM,MEM_0074,2022-12-08 22:30:33
,survey-multi-choice,7,426865,0.0-7.0-0.0,,,,,7500.0,,"{'Style': 'True', 'Animacy': 'True'}",,,,,,,,,,,,"[0, 1]",MEM,MEM_0074,2022-12-08 22:30:33
,html-keyboard-response,8,429288,0.0-8.0,,,,,2415.0,"
      <p>Great job! Now you'll continue onto doing the main task.
      You will have the opportunity to take brief breaks at various points.
      Good luck!<br>Press the space bar to continue.</p>", ,,,,,,,,,,,,,MEM,MEM_0074,2022-12-08 22:30:33
True,fullscreen,9,432046,0.0-9.0,,,,,,,,,,,,,,,,,,,,MEM,MEM_0074,2022-12-08 22:30:33
,visual-trial,10,438426,0.0-10.0,,,,,2859.0,,,arrowleft,animate (left arrow)&emsp;&emsp;&emsp;&emsp;inanimate (right arrow),semantic,3000.0,,/static/object_pics/picture_insect/cockroach.jpg,7000.0,animate,photo,508.3320298570415,True,,MEM,MEM_0074,2022-12-08 22:30:33
,visual-trial,11,443163,0.0-11.0,,,,,876.0,,,arrowleft,photo (left arrow)&emsp;&emsp;&emsp;&emsp;drawing (right arrow),perceptual,3000.0,,/static/object_pics/picture_insect/mosquito.jpg,7000.0,animate,photo,845.4700439464968,True,,MEM,MEM_0074,2022-12-08 22:30:33
,visual-trial,12,447710,0.0-12.0,,,,,927.0,,,arrowleft,animate (left arrow)&emsp;&emsp;&emsp;&emsp;inanimate (right arrow),semantic,3000.0,,/static/object_pics/picture_insect/snail.jpg,7000.0,animate,photo,608.9999981740308,True,,MEM,MEM_0074,2022-12-08 22:30:33
,visual-trial,13,453536,0.0-13.0,,,,,1360.0,,,arrowright,animate (left arrow)&emsp;&emsp;&emsp;&emsp;inanimate (right arrow),semantic,3000.0,,/static/object_pics/picture_clothe/hat.jpg,7000.0,inanimate,photo,1447.8592505639913,True,,MEM,MEM_0074,2022-12-08 22:30:33
,visual-trial,14,458593,0.0-14.0,,,,,1153.0,,,arrowleft,photo (left arrow)&emsp;&emsp;&emsp;&emsp;drawing (right arrow),perceptual,3000.0,,/static/object_pics/picture_veggie/lettuce.jpg,7000.0,inanimate,photo,890.4816558195166,True,,MEM,MEM_0074,2022-12-08 22:30:33
,visual-trial,15,463504,0.0-15.0,,,,,1049.0,,,arrowright,animate (left arrow)&emsp;&emsp;&emsp;&emsp;inanimate (right arrow),semantic,3000.0,,/static/object_pics/picture_veggie/tomato.jpg,7000.0,inanimate,photo,854.3110843240052,True,,MEM,MEM_0074,2022-12-08 22:30:33
,visual-trial,16,467793,0.0-16.0,,,,,722.0,,,arrowright,photo (left arrow)&emsp;&emsp;&emsp;&emsp;drawing (right arrow),perceptual,3000.0,,/static/object_pics/drawing_mammal/camel.jpg,7000.0,animate,drawing,552.8162963600519,True,,MEM,MEM_0074,2022-12-08 22:30:33
,visual-trial,17,472888,0.0-17.0,,,,,874.0,,,arrowleft,animate (left arrow)&emsp;&emsp;&emsp;&emsp;inanimate (right arrow),semantic,3000.0,,/static/object_pics/drawing_mammal/horse.jpg,7000.0,animate,drawing,1205.1093446559635,True,,MEM,MEM_0074,2022-12-08 22:30:33
,visual-trial,18,477851,0.0-18.0,,,,,996.0,,,arrowright,animate (left arrow)&emsp;&emsp;&emsp;&emsp;inanimate (right arrow),semantic,3000.0,,/static/object_pics/picture_veggie/pepper.jpg,7000.0,inanimate,photo,952.6509991408614,True,,MEM,MEM_0074,2022-12-08 22:30:33
,visual-trial,19,483319,0.0-19.0,,,,,1232.0,,,arrowright,animate (left arrow)&emsp;&emsp;&emsp;&emsp;inanimate (right arrow),semantic,3000.0,,/static/object_pics/drawing_electronic/handmixer.jpg,7000.0,inanimate,drawing,1220.0563546341173,True,,MEM,MEM_0074,2022-12-08 22:30:33
,visual-trial,20,488720,0.0-20.0,,,,,1489.0,,,arrowleft,animate (left arrow)&emsp;&emsp;&emsp;&emsp;inanimate (right arrow),semantic,3000.0,,/static/object_pics/drawing_mammal/elephant.jpg,7000.0,animate,drawing,899.5589828053437,True,,MEM,MEM_0074,2022-12-08 22:30:33
,visual-trial,21,493228,0.0-21.0,,,,,653.0,,,arrowleft,animate (left arrow)&emsp;&emsp;&emsp;&emsp;inanimate (right arrow),semantic,3000.0,,/static/object_pics/picture_sea/seal.jpg,7000.0,animate,photo,843.8108591934802,True,,MEM,MEM_0074,2022-12-08 22:30:33
,visual-trial,22,498843,0.0-22.0,,,,,1164.0,,,arrowright,photo (left arrow)&emsp;&emsp;&emsp;&emsp;drawing (right arrow),perceptual,3000.0,,/static/object_pics/drawing_mammal/rhinoceros.jpg,7000.0,animate,drawing,1439.9320850316071,True,,MEM,MEM_0074,2022-12-08 22:30:33
,visual-trial,23,503679,0.0-23.0,,,,,1095.0,,,arrowright,animate (left arrow)&emsp;&emsp;&emsp;&emsp;inanimate (right arrow),semantic,3000.0,,/static/object_pics/picture_clothe/belt.jpg,7000.0,inanimate,photo,726.3880453108111,True,,MEM,MEM_0074,2022-12-08 22:30:33
,visual-trial,24,509085,0.0-24.0,,,,,1030.0,,,arrowright,animate (left arrow)&emsp;&emsp;&emsp;&emsp;inanimate (right arrow),semantic,3000.0,,/static/object_pics/drawing_mammal/sheep.jpg,7000.0,animate,drawing,1361.814509124927,False,,MEM,MEM_0074,2022-12-08 22:30:33
,visual-trial,25,514684,0.0-25.0,,,,,1437.0,,,arrowleft,animate (left arrow)&emsp;&emsp;&emsp;&emsp;inanimate (right arrow),semantic,3000.0,,/static/object_pics/drawing_bird/pelican.jpg,7000.0,animate,drawing,1151.4768915589216,True,,MEM,MEM_0074,2022-12-08 22:30:33
,visual-trial,26,520184,0.0-26.0,,,,,1888.0,,,arrowleft,animate (left arrow)&emsp;&emsp;&emsp;&emsp;inanimate (right arrow),semantic,3000.0,,/static/object_pics/picture_insect/centipede.jpg,7000.0,animate,photo,599.9320018123158,True,,MEM,MEM_0074,2022-12-08 22:30:33
,visual-trial,27,525214,0.0-27.0,,,,,743.0,,,arrowleft,animate (left arrow)&emsp;&emsp;&emsp;&emsp;inanimate (right arrow),semantic,3000.0,,/static/object_pics/picture_insect/fly.jpg,7000.0,animate,photo,1271.822867340952,True,,MEM,MEM_0074,2022-12-08 22:30:33
,visual-trial,28,530087,0.0-28.0,,,,,1040.0,,,arrowright,animate (left arrow)&emsp;&emsp;&emsp;&emsp;inanimate (right arrow),semantic,3000.0,,/static/object_pics/picture_veggie/artichoke.jpg,7000.0,inanimate,photo,815.674608957871,True,,MEM,MEM_0074,2022-12-08 22:30:33
,visual-trial,29,535190,0.0-29.0,,,,,1039.0,,,arrowright,animate (left arrow)&emsp;&emsp;&emsp;&emsp;inanimate (right arrow),semantic,3000.0,,/static/object_pics/drawing_electronic/keyboard.jpg,7000.0,inanimate,drawing,1047.5074171247015,True,,MEM,MEM_0074,2022-12-08 22:30:33
,visual-trial,30,540185,0.0-30.0,,,,,594.0,,,arrowleft,animate (left arrow)&emsp;&emsp;&emsp;&emsp;inanimate (right arrow),semantic,3000.0,,/static/object_pics/drawing_mammal/bison.jpg,7000.0,animate,drawing,1389.172583516036,True,,MEM,MEM_0074,2022-12-08 22:30:33
,visual-trial,31,545348,0.0-31.0,,,,,1117.0,,,arrowleft,photo (left arrow)&emsp;&emsp;&emsp;&emsp;drawing (right arrow),perceptual,3000.0,,/static/object_pics/picture_clothe/dress.jpg,7000.0,inanimate,photo,1033.0005772324034,True,,MEM,MEM_0074,2022-12-08 22:30:33
,visual-trial,32,550408,0.0-32.0,,,,,1304.0,,,arrowleft,animate (left arrow)&emsp;&emsp;&emsp;&emsp;inanimate (right arrow),semantic,3000.0,,/static/object_pics/drawing_bird/canary.jpg,7000.0,animate,drawing,742.309133445167,True,,MEM,MEM_0074,2022-12-08 22:30:33
,visual-trial,33,555956,0.0-33.0,,,,,1621.0,,,arrowleft,animate (left arrow)&emsp;&emsp;&emsp;&emsp;inanimate (right arrow),semantic,3000.0,,/static/object_pics/drawing_bird/duck.jpg,7000.0,animate,drawing,911.8228997542979,True,,MEM,MEM_0074,2022-12-08 22:30:33
,visual-trial,34,560623,0.0-34.0,,,,,808.0,,,arrowleft,animate (left arrow)&emsp;&emsp;&emsp;&emsp;inanimate (right arrow),semantic,3000.0,,/static/object_pics/drawing_bird/penguin.jpg,7000.0,animate,drawing,844.4540571741657,True,,MEM,MEM_0074,2022-12-08 22:30:33
,visual-trial,35,565585,0.0-35.0,,,,,730.0,,,arrowleft,animate (left arrow)&emsp;&emsp;&emsp;&emsp;inanimate (right arrow),semantic,3000.0,,/static/object_pics/drawing_mammal/squirrel.jpg,7000.0,animate,drawing,1220.8009407721363,True,,MEM,MEM_0074,2022-12-08 22:30:33
,visual-trial,36,570487,0.0-36.0,,,,,896.0,,,arrowright,photo (left arrow)&emsp;&emsp;&emsp;&emsp;drawing (right arrow),perceptual,3000.0,,/static/object_pics/drawing_electronic/toaster.jpg,7000.0,inanimate,drawing,991.2309187519829,True,,MEM,MEM_0074,2022-12-08 22:30:33
,visual-trial,37,575669,0.0-37.0,,,,,758.0,,,arrowright,photo (left arrow)&emsp;&emsp;&emsp;&emsp;drawing (right arrow),perceptual,3000.0,,/static/object_pics/drawing_mammal/gorilla.jpg,7000.0,animate,drawing,1413.1101577201177,True,,MEM,MEM_0074,2022-12-08 22:30:33
,visual-trial,38,580017,0.0-38.0,,,,,706.0,,,arrowright,animate (left arrow)&emsp;&emsp;&emsp;&emsp;inanimate (right arrow),semantic,3000.0,,/static/object_pics/drawing_electronic/hairdryer.jpg,7000.0,inanimate,drawing,629.006827726728,True,,MEM,MEM_0074,2022-12-08 22:30:33
,visual-trial,39,584638,0.0-39.0,,,,,655.0,,,arrowright,photo (left arrow)&emsp;&emsp;&emsp;&emsp;drawing (right arrow),perceptual,3000.0,,/static/object_pics/drawing_electronic/remote control.jpg,7000.0,inanimate,drawing,953.0787147733844,True,,MEM,MEM_0074,2022-12-08 22:30:33
,visual-trial,40,588770,0.0-40.0,,,,,483.0,,,arrowleft,photo (left arrow)&emsp;&emsp;&emsp;&emsp;drawing (right arrow),perceptual,3000.0,,/static/object_pics/picture_clothe/jeans.jpg,7000.0,inanimate,photo,632.5549423151499,True,,MEM,MEM_0074,2022-12-08 22:30:33
,visual-trial,41,593739,0.0-41.0,,,,,1364.0,,,arrowright,animate (left arrow)&emsp;&emsp;&emsp;&emsp;inanimate (right arrow),semantic,3000.0,,/static/object_pics/drawing_fruit/coconut.jpg,7000.0,inanimate,drawing,589.1877733061086,True,,MEM,MEM_0074,2022-12-08 22:30:33
,html-keyboard-response,42,614171,0.0-42.0,,,,,20428.0,"
        <p>In that last set of trials, you were correct 97% of the time.</p>
        <p>Feel free to take a brief break. In the next set of trials, you will continue with the same task.
        The instructions are displayed below, in case you need a refresher.
        Press the space bar when you are ready to continue.</p>
        <p>In this task, you will see a series of objects. On some trials, your job is to determine
        whether the object shown is a color photograph or a line drawing. On other trials, your job
        is to determine whether the object represented is animate or inanimate.

        <br><br>
        You will know which response to make depending on the initial display, which will say
        ""animate / inanimate"" or ""photo / drawing"".
        <br>
        You will be able to use the left arrow key to report animate/photo and the right arrow key to report inanimate/drawing.
        <br>
        Please respond as quickly as possible, and use your dominant hand to make your responses.
        <br><br>
        You will be able to use the left arrow key to report animate/photo and the right arrow key to report inanimate/drawing.
        <br><br>
        <img src=""/static/instructions_pics/visual_pic.png"" height=""300px"">
        <br>
        In the example in the top row, the correct response is animate (left arrow key). In the example in the bottom row, the correct response is photo (left arrow key).
        <br>
        <br>When you are ready to begin, press the space bar.</p>", ,,,,,,,,,,,,,MEM,MEM_0074,2022-12-08 22:30:33
,visual-trial,43,619553,0.0-43.0,,,,,1090.0,,,arrowleft,animate (left arrow)&emsp;&emsp;&emsp;&emsp;inanimate (right arrow),semantic,3000.0,,/static/object_pics/picture_insect/worm.jpg,7000.0,animate,photo,1281.1403203573382,True,,MEM,MEM_0074,2022-12-08 22:30:33
,visual-trial,44,624675,0.0-44.0,,,,,1435.0,,,arrowright,photo (left arrow)&emsp;&emsp;&emsp;&emsp;drawing (right arrow),perceptual,3000.0,,/static/object_pics/drawing_electronic/satellite dish.jpg,7000.0,inanimate,drawing,669.1936228851334,True,,MEM,MEM_0074,2022-12-08 22:30:33
,visual-trial,45,629729,0.0-45.0,,,,,562.0,,,arrowright,photo (left arrow)&emsp;&emsp;&emsp;&emsp;drawing (right arrow),perceptual,3000.0,,/static/object_pics/drawing_bird/owl.jpg,7000.0,animate,drawing,1477.1164760690167,True,,MEM,MEM_0074,2022-12-08 22:30:33
,visual-trial,46,634386,0.0-46.0,,,,,1043.0,,,arrowleft,photo (left arrow)&emsp;&emsp;&emsp;&emsp;drawing (right arrow),perceptual,3000.0,,/static/object_pics/picture_veggie/mushrooms.jpg,7000.0,inanimate,photo,596.7244849135567,True,,MEM,MEM_0074,2022-12-08 22:30:33
,visual-trial,47,638918,0.0-47.0,,,,,703.0,,,arrowright,animate (left arrow)&emsp;&emsp;&emsp;&emsp;inanimate (right arrow),semantic,3000.0,,/static/object_pics/drawing_fruit/melon.jpg,7000.0,inanimate,drawing,811.2641187796155,True,,MEM,MEM_0074,2022-12-08 22:30:33
,visual-trial,48,645117,0.0-48.0,,,,,1910.0,,,arrowright,photo (left arrow)&emsp;&emsp;&emsp;&emsp;drawing (right arrow),perceptual,3000.0,,/static/object_pics/drawing_electronic/radio.jpg,7000.0,inanimate,drawing,1271.5246169525917,True,,MEM,MEM_0074,2022-12-08 22:30:33
,visual-trial,49,650278,0.0-49.0,,,,,759.0,,,arrowleft,animate (left arrow)&emsp;&emsp;&emsp;&emsp;inanimate (right arrow),semantic,3000.0,,/static/object_pics/drawing_bird/vulture.jpg,7000.0,animate,drawing,1389.0582815305772,True,,MEM,MEM_0074,2022-12-08 22:30:33
,visual-trial,50,656102,0.0-50.0,,,,,1310.0,,,arrowleft,photo (left arrow)&emsp;&emsp;&emsp;&emsp;drawing (right arrow),perceptual,3000.0,,/static/object_pics/picture_veggie/asparagus.jpg,7000.0,inanimate,photo,1498.5415757319731,True,,MEM,MEM_0074,2022-12-08 22:30:33
,visual-trial,51,661146,0.0-51.0,,,,,1443.0,,,arrowright,animate (left arrow)&emsp;&emsp;&emsp;&emsp;inanimate (right arrow),semantic,3000.0,,/static/object_pics/picture_clothe/sport t-shirt.jpg,7000.0,inanimate,photo,588.6319924786769,True,,MEM,MEM_0074,2022-12-08 22:30:33
,visual-trial,52,667090,0.0-52.0,,,,,1930.0,,,arrowleft,photo (left arrow)&emsp;&emsp;&emsp;&emsp;drawing (right arrow),perceptual,3000.0,,/static/object_pics/picture_sea/dolphin.jpg,7000.0,animate,photo,997.3064169170129,True,,MEM,MEM_0074,2022-12-08 22:30:33
,visual-trial,53,672158,0.0-53.0,,,,,1008.0,,,arrowright,animate (left arrow)&emsp;&emsp;&emsp;&emsp;inanimate (right arrow),semantic,3000.0,,/static/object_pics/picture_clothe/high heels.jpg,7000.0,inanimate,photo,1050.9273879984567,True,,MEM,MEM_0074,2022-12-08 22:30:33
,visual-trial,54,676940,0.0-54.0,,,,,653.0,,,arrowright,animate (left arrow)&emsp;&emsp;&emsp;&emsp;inanimate (right arrow),semantic,3000.0,,/static/object_pics/drawing_electronic/printer.jpg,7000.0,inanimate,drawing,1112.5240840646256,True,,MEM,MEM_0074,2022-12-08 22:30:33
,visual-trial,55,681896,0.0-55.0,,,,,1041.0,,,arrowleft,animate (left arrow)&emsp;&emsp;&emsp;&emsp;inanimate (right arrow),semantic,3000.0,,/static/object_pics/picture_sea/octopus.jpg,7000.0,animate,photo,900.2109131320368,True,,MEM,MEM_0074,2022-12-08 22:30:33
,visual-trial,56,686867,0.0-56.0,,,,,1379.0,,,arrowleft,photo (left arrow)&emsp;&emsp;&emsp;&emsp;drawing (right arrow),perceptual,3000.0,,/static/object_pics/picture_insect/ant.jpg,7000.0,animate,photo,576.2452973265981,True,,MEM,MEM_0074,2022-12-08 22:30:33
,visual-trial,57,692099,0.0-57.0,,,,,1132.0,,,arrowright,animate (left arrow)&emsp;&emsp;&emsp;&emsp;inanimate (right arrow),semantic,3000.0,,/static/object_pics/drawing_fruit/watermelon.jpg,7000.0,inanimate,drawing,1086.9377719668591,True,,MEM,MEM_0074,2022-12-08 22:30:33
,visual-trial,58,696862,0.0-58.0,,,,,1119.0,,,arrowright,animate (left arrow)&emsp;&emsp;&emsp;&emsp;inanimate (right arrow),semantic,3000.0,,/static/object_pics/drawing_fruit/grapes.jpg,7000.0,inanimate,drawing,626.5096243731676,True,,MEM,MEM_0074,2022-12-08 22:30:33
,visual-trial,59,702424,0.0-59.0,,,,,1097.0,,,arrowright,animate (left arrow)&emsp;&emsp;&emsp;&emsp;inanimate (right arrow),semantic,3000.0,,/static/object_pics/picture_clothe/gloves.jpg,7000.0,inanimate,photo,1448.1419644331986,True,,MEM,MEM_0074,2022-12-08 22:30:33
,visual-trial,60,706898,0.0-60.0,,,,,627.0,,,arrowleft,photo (left arrow)&emsp;&emsp;&emsp;&emsp;drawing (right arrow),perceptual,3000.0,,/static/object_pics/picture_insect/dragonfly.jpg,7000.0,animate,photo,832.4409163345877,True,,MEM,MEM_0074,2022-12-08 22:30:33
,visual-trial,61,711162,0.0-61.0,,,,,667.0,,,arrowright,animate (left arrow)&emsp;&emsp;&emsp;&emsp;inanimate (right arrow),semantic,3000.0,,/static/object_pics/picture_veggie/garlic.jpg,7000.0,inanimate,photo,586.1631267128837,True,,MEM,MEM_0074,2022-12-08 22:30:33
,visual-trial,62,715704,0.0-62.0,,,,,953.0,,,arrowright,photo (left arrow)&emsp;&emsp;&emsp;&emsp;drawing (right arrow),perceptual,3000.0,,/static/object_pics/drawing_fruit/apple.jpg,7000.0,inanimate,drawing,570.5993552819368,True,,MEM,MEM_0074,2022-12-08 22:30:33
,visual-trial,63,720822,0.0-63.0,,,,,1223.0,,,arrowleft,photo (left arrow)&emsp;&emsp;&emsp;&emsp;drawing (right arrow),perceptual,3000.0,,/static/object_pics/picture_sea/crab.jpg,7000.0,animate,photo,881.854820001955,True,,MEM,MEM_0074,2022-12-08 22:30:33
,visual-trial,64,725402,0.0-64.0,,,,,723.0,,,arrowleft,photo (left arrow)&emsp;&emsp;&emsp;&emsp;drawing (right arrow),perceptual,3000.0,,/static/object_pics/picture_clothe/football sneaker.jpg,7000.0,inanimate,photo,841.950314282768,True,,MEM,MEM_0074,2022-12-08 22:30:33
,visual-trial,65,729462,0.0-65.0,,,,,495.0,,,arrowright,photo (left arrow)&emsp;&emsp;&emsp;&emsp;drawing (right arrow),perceptual,3000.0,,/static/object_pics/drawing_bird/toucan.jpg,7000.0,animate,drawing,550.6396567171929,True,,MEM,MEM_0074,2022-12-08 22:30:33
,visual-trial,66,734069,0.0-66.0,,,,,1094.0,,,arrowleft,animate (left arrow)&emsp;&emsp;&emsp;&emsp;inanimate (right arrow),semantic,3000.0,,/static/object_pics/picture_sea/eel.jpg,7000.0,animate,photo,500.56807480292196,True,,MEM,MEM_0074,2022-12-08 22:30:33
,visual-trial,67,739218,0.0-67.0,,,,,843.0,,,arrowright,photo (left arrow)&emsp;&emsp;&emsp;&emsp;drawing (right arrow),perceptual,3000.0,,/static/object_pics/drawing_mammal/rabbit.jpg,7000.0,animate,drawing,1292.2664610714287,True,,MEM,MEM_0074,2022-12-08 22:30:33
,visual-trial,68,743473,0.0-68.0,,,,,578.0,,,arrowright,photo (left arrow)&emsp;&emsp;&emsp;&emsp;drawing (right arrow),perceptual,3000.0,,/static/object_pics/drawing_fruit/papaya.jpg,7000.0,inanimate,drawing,660.2378952993581,True,,MEM,MEM_0074,2022-12-08 22:30:33
,visual-trial,69,748851,0.0-69.0,,,,,1260.0,,,arrowleft,animate (left arrow)&emsp;&emsp;&emsp;&emsp;inanimate (right arrow),semantic,3000.0,,/static/object_pics/picture_sea/piranha.jpg,7000.0,animate,photo,1102.6470035208386,True,,MEM,MEM_0074,2022-12-08 22:30:33
,visual-trial,70,754451,0.0-70.0,,,,,1236.0,,,arrowleft,animate (left arrow)&emsp;&emsp;&emsp;&emsp;inanimate (right arrow),semantic,3000.0,,/static/object_pics/picture_sea/jellyfish.jpg,7000.0,animate,photo,1347.4064374708119,True,,MEM,MEM_0074,2022-12-08 22:30:33
,visual-trial,71,759298,0.0-71.0,,,,,892.0,,,arrowright,photo (left arrow)&emsp;&emsp;&emsp;&emsp;drawing (right arrow),perceptual,3000.0,,/static/object_pics/drawing_bird/turkey.jpg,7000.0,animate,drawing,945.3124902311503,True,,MEM,MEM_0074,2022-12-08 22:30:33
,visual-trial,72,764518,0.0-72.0,,,,,1367.0,,,arrowright,animate (left arrow)&emsp;&emsp;&emsp;&emsp;inanimate (right arrow),semantic,3000.0,,/static/object_pics/drawing_fruit/pomegranate.jpg,7000.0,inanimate,drawing,842.0335924031963,True,,MEM,MEM_0074,2022-12-08 22:30:33
,visual-trial,73,769494,0.0-73.0,,,,,823.0,,,arrowleft,animate (left arrow)&emsp;&emsp;&emsp;&emsp;inanimate (right arrow),semantic,3000.0,,/static/object_pics/picture_insect/bumble bee.jpg,7000.0,animate,photo,1137.6361275550871,True,,MEM,MEM_0074,2022-12-08 22:30:33
,visual-trial,74,774218,0.0-74.0,,,,,796.0,,,arrowright,animate (left arrow)&emsp;&emsp;&emsp;&emsp;inanimate (right arrow),semantic,3000.0,,/static/object_pics/picture_clothe/bowtie.jpg,7000.0,inanimate,photo,915.0954032963283,True,,MEM,MEM_0074,2022-12-08 22:30:33
,html-keyboard-response,75,776976,0.0-75.0,,,,,2756.0,"
        <p>In that last set of trials, you were correct 100% of the time.</p>
        <p>Feel free to take a brief break. In the next set of trials, you will continue with the same task.
        The instructions are displayed below, in case you need a refresher.
        Press the space bar when you are ready to continue.</p>
        <p>In this task, you will see a series of objects. On some trials, your job is to determine
        whether the object shown is a color photograph or a line drawing. On other trials, your job
        is to determine whether the object represented is animate or inanimate.

        <br><br>
        You will know which response to make depending on the initial display, which will say
        ""animate / inanimate"" or ""photo / drawing"".
        <br>
        You will be able to use the left arrow key to report animate/photo and the right arrow key to report inanimate/drawing.
        <br>
        Please respond as quickly as possible, and use your dominant hand to make your responses.
        <br><br>
        You will be able to use the left arrow key to report animate/photo and the right arrow key to report inanimate/drawing.
        <br><br>
        <img src=""/static/instructions_pics/visual_pic.png"" height=""300px"">
        <br>
        In the example in the top row, the correct response is animate (left arrow key). In the example in the bottom row, the correct response is photo (left arrow key).
        <br>
        <br>When you are ready to begin, press the space bar.</p>", ,,,,,,,,,,,,,MEM,MEM_0074,2022-12-08 22:30:33
,visual-trial,76,781103,0.0-76.0,,,,,576.0,,,arrowleft,photo (left arrow)&emsp;&emsp;&emsp;&emsp;drawing (right arrow),perceptual,3000.0,,/static/object_pics/picture_clothe/shirt.jpg,7000.0,inanimate,photo,537.5327770097233,True,,MEM,MEM_0074,2022-12-08 22:30:33
,visual-trial,77,785769,0.0-77.0,,,,,746.0,,,arrowright,photo (left arrow)&emsp;&emsp;&emsp;&emsp;drawing (right arrow),perceptual,3000.0,,/static/object_pics/drawing_fruit/kiwi.jpg,7000.0,inanimate,drawing,909.3703083131093,True,,MEM,MEM_0074,2022-12-08 22:30:33
,visual-trial,78,790907,0.0-78.0,,,,,636.0,,,arrowleft,photo (left arrow)&emsp;&emsp;&emsp;&emsp;drawing (right arrow),perceptual,3000.0,,/static/object_pics/picture_clothe/slipper.jpg,7000.0,inanimate,photo,1490.2688995165513,True,,MEM,MEM_0074,2022-12-08 22:30:33
,visual-trial,79,795588,0.0-79.0,,,,,998.0,,,arrowleft,animate (left arrow)&emsp;&emsp;&emsp;&emsp;inanimate (right arrow),semantic,3000.0,,/static/object_pics/picture_insect/spider.jpg,7000.0,animate,photo,671.1674624236166,True,,MEM,MEM_0074,2022-12-08 22:30:33
,visual-trial,80,800760,0.0-80.0,,,,,737.0,,,arrowleft,animate (left arrow)&emsp;&emsp;&emsp;&emsp;inanimate (right arrow),semantic,3000.0,,/static/object_pics/picture_sea/pufferfish.jpg,7000.0,animate,photo,1423.3970913051696,True,,MEM,MEM_0074,2022-12-08 22:30:33
,visual-trial,81,805328,0.0-81.0,,,,,866.0,,,arrowright,animate (left arrow)&emsp;&emsp;&emsp;&emsp;inanimate (right arrow),semantic,3000.0,,/static/object_pics/drawing_fruit/cherry.jpg,7000.0,inanimate,drawing,691.6789964959448,True,,MEM,MEM_0074,2022-12-08 22:30:33
,visual-trial,82,809943,0.0-82.0,,,,,896.0,,,arrowright,animate (left arrow)&emsp;&emsp;&emsp;&emsp;inanimate (right arrow),semantic,3000.0,,/static/object_pics/drawing_electronic/camera.jpg,7000.0,inanimate,drawing,703.3704413959538,True,,MEM,MEM_0074,2022-12-08 22:30:33
,visual-trial,83,815748,0.0-83.0,,,,,1597.0,,,arrowleft,photo (left arrow)&emsp;&emsp;&emsp;&emsp;drawing (right arrow),perceptual,3000.0,,/static/object_pics/picture_veggie/carrot.jpg,7000.0,inanimate,photo,1192.2435407597607,True,,MEM,MEM_0074,2022-12-08 22:30:33
,visual-trial,84,821507,0.0-84.0,,,,,1901.0,,,arrowright,photo (left arrow)&emsp;&emsp;&emsp;&emsp;drawing (right arrow),perceptual,3000.0,,/static/object_pics/drawing_bird/flamingo.jpg,7000.0,animate,drawing,841.104605446458,True,,MEM,MEM_0074,2022-12-08 22:30:33
,visual-trial,85,826298,0.0-85.0,,,,,907.0,,,arrowleft,photo (left arrow)&emsp;&emsp;&emsp;&emsp;drawing (right arrow),perceptual,3000.0,,/static/object_pics/picture_sea/killer whale.jpg,7000.0,animate,photo,869.7451021354296,True,,MEM,MEM_0074,2022-12-08 22:30:33
,visual-trial,86,830770,0.0-86.0,,,,,628.0,,,arrowright,animate (left arrow)&emsp;&emsp;&emsp;&emsp;inanimate (right arrow),semantic,3000.0,,/static/object_pics/picture_veggie/pumpkin.jpg,7000.0,inanimate,photo,829.5476872736209,True,,MEM,MEM_0074,2022-12-08 22:30:33
,visual-trial,87,835834,0.0-87.0,,,,,739.0,,,arrowright,photo (left arrow)&emsp;&emsp;&emsp;&emsp;drawing (right arrow),perceptual,3000.0,,/static/object_pics/drawing_electronic/laptop.jpg,7000.0,inanimate,drawing,1307.3234280274955,True,,MEM,MEM_0074,2022-12-08 22:30:33
,visual-trial,88,840777,0.0-88.0,,,,,826.0,,,arrowright,animate (left arrow)&emsp;&emsp;&emsp;&emsp;inanimate (right arrow),semantic,3000.0,,/static/object_pics/drawing_fruit/banana.jpg,7000.0,inanimate,drawing,1112.2565298812108,True,,MEM,MEM_0074,2022-12-08 22:30:33
,visual-trial,89,845202,0.0-89.0,,,,,603.0,,,arrowleft,photo (left arrow)&emsp;&emsp;&emsp;&emsp;drawing (right arrow),perceptual,3000.0,,/static/object_pics/picture_sea/shrimp.jpg,7000.0,animate,photo,810.6070894641317,True,,MEM,MEM_0074,2022-12-08 22:30:33
,visual-trial,90,849458,0.0-90.0,,,,,611.0,,,arrowright,animate (left arrow)&emsp;&emsp;&emsp;&emsp;inanimate (right arrow),semantic,3000.0,,/static/object_pics/drawing_mammal/bear.jpg,7000.0,animate,drawing,628.4824553212782,False,,MEM,MEM_0074,2022-12-08 22:30:33
,visual-trial,91,854405,0.0-91.0,,,,,1126.0,,,arrowright,photo (left arrow)&emsp;&emsp;&emsp;&emsp;drawing (right arrow),perceptual,3000.0,,/static/object_pics/drawing_electronic/coffee maker.jpg,7000.0,inanimate,drawing,805.7882940335626,True,,MEM,MEM_0074,2022-12-08 22:30:33
,visual-trial,92,859615,0.0-92.0,,,,,1272.0,,,arrowleft,animate (left arrow)&emsp;&emsp;&emsp;&emsp;inanimate (right arrow),semantic,3000.0,,/static/object_pics/picture_sea/mantaray.jpg,7000.0,animate,photo,921.2753798139979,True,,MEM,MEM_0074,2022-12-08 22:30:33
,visual-trial,93,864103,0.0-93.0,,,,,913.0,,,arrowright,photo (left arrow)&emsp;&emsp;&emsp;&emsp;drawing (right arrow),perceptual,3000.0,,/static/object_pics/drawing_mammal/bull.jpg,7000.0,animate,drawing,561.5914065073666,True,,MEM,MEM_0074,2022-12-08 22:30:33
,visual-trial,94,868814,0.0-94.0,,,,,808.0,,,arrowleft,photo (left arrow)&emsp;&emsp;&emsp;&emsp;drawing (right arrow),perceptual,3000.0,,/static/object_pics/picture_insect/beetle.jpg,7000.0,animate,photo,889.5416295380467,True,,MEM,MEM_0074,2022-12-08 22:30:33
,visual-trial,95,873968,0.0-95.0,,,,,962.0,,,arrowright,photo (left arrow)&emsp;&emsp;&emsp;&emsp;drawing (right arrow),perceptual,3000.0,,/static/object_pics/drawing_bird/parrot.jpg,7000.0,animate,drawing,1183.1699323838334,True,,MEM,MEM_0074,2022-12-08 22:30:33
,visual-trial,96,879479,0.0-96.0,,,,,1072.0,,,arrowleft,photo (left arrow)&emsp;&emsp;&emsp;&emsp;drawing (right arrow),perceptual,3000.0,,/static/object_pics/picture_insect/butterfly.jpg,7000.0,animate,photo,1426.8275648824817,True,,MEM,MEM_0074,2022-12-08 22:30:33
,visual-trial,97,885989,0.0-97.0,,,,,2086.0,,,arrowleft,animate (left arrow)&emsp;&emsp;&emsp;&emsp;inanimate (right arrow),semantic,3000.0,,/static/object_pics/drawing_bird/hummingbird.jpg,7000.0,animate,drawing,1413.6222201699375,True,,MEM,MEM_0074,2022-12-08 22:30:33
,visual-trial,98,891335,0.0-98.0,,,,,1488.0,,,arrowleft,photo (left arrow)&emsp;&emsp;&emsp;&emsp;drawing (right arrow),perceptual,3000.0,,/static/object_pics/picture_insect/ladybug.jpg,7000.0,animate,photo,841.1548528572001,True,,MEM,MEM_0074,2022-12-08 22:30:33
,visual-trial,99,896468,0.0-99.0,,,,,845.0,,,arrowright,photo (left arrow)&emsp;&emsp;&emsp;&emsp;drawing (right arrow),perceptual,3000.0,,/static/object_pics/drawing_electronic/gamepad.jpg,7000.0,inanimate,drawing,1272.4487162370528,True,,MEM,MEM_0074,2022-12-08 22:30:33
,visual-trial,100,901143,0.0-100.0,,,,,888.0,,,arrowleft,photo (left arrow)&emsp;&emsp;&emsp;&emsp;drawing (right arrow),perceptual,3000.0,,/static/object_pics/picture_sea/shark.jpg,7000.0,animate,photo,771.9045688593178,True,,MEM,MEM_0074,2022-12-08 22:30:33
,visual-trial,101,906198,0.0-101.0,,,,,855.0,,,arrowright,photo (left arrow)&emsp;&emsp;&emsp;&emsp;drawing (right arrow),perceptual,3000.0,,/static/object_pics/drawing_bird/ostrich.jpg,7000.0,animate,drawing,1195.6657405023436,True,,MEM,MEM_0074,2022-12-08 22:30:33
,visual-trial,102,911375,0.0-102.0,,,,,1352.0,,,arrowleft,photo (left arrow)&emsp;&emsp;&emsp;&emsp;drawing (right arrow),perceptual,3000.0,,/static/object_pics/picture_clothe/glasses.jpg,7000.0,inanimate,photo,808.2654147414083,True,,MEM,MEM_0074,2022-12-08 22:30:33
,visual-trial,103,916431,0.0-103.0,,,,,856.0,,,arrowright,animate (left arrow)&emsp;&emsp;&emsp;&emsp;inanimate (right arrow),semantic,3000.0,,/static/object_pics/drawing_fruit/strawberry.jpg,7000.0,inanimate,drawing,1190.3763172479378,True,,MEM,MEM_0074,2022-12-08 22:30:33
,visual-trial,104,921685,0.0-104.0,,,,,1247.0,,,arrowleft,animate (left arrow)&emsp;&emsp;&emsp;&emsp;inanimate (right arrow),semantic,3000.0,,/static/object_pics/picture_sea/seahorse.jpg,7000.0,animate,photo,992.0064823866703,True,,MEM,MEM_0074,2022-12-08 22:30:33
,visual-trial,105,927068,0.0-105.0,,,,,925.0,,,arrowleft,animate (left arrow)&emsp;&emsp;&emsp;&emsp;inanimate (right arrow),semantic,3000.0,,/static/object_pics/picture_insect/mantis.jpg,7000.0,animate,photo,1440.6783867608037,True,,MEM,MEM_0074,2022-12-08 22:30:33
,visual-trial,106,931862,0.0-106.0,,,,,575.0,,,arrowright,photo (left arrow)&emsp;&emsp;&emsp;&emsp;drawing (right arrow),perceptual,3000.0,,/static/object_pics/drawing_electronic/computer mouse.jpg,7000.0,inanimate,drawing,1202.8652721980084,True,,MEM,MEM_0074,2022-12-08 22:30:33
,visual-trial,107,937607,0.0-107.0,,,,,1336.0,,,arrowright,animate (left arrow)&emsp;&emsp;&emsp;&emsp;inanimate (right arrow),semantic,3000.0,,/static/object_pics/picture_clothe/hoodie.jpg,7000.0,inanimate,photo,1394.0963334715161,True,,MEM,MEM_0074,2022-12-08 22:30:33
,html-keyboard-response,108,940087,0.0-108.0,,,,,2478.0,"
        <p>In that last set of trials, you were correct 97% of the time.</p>
        <p>Feel free to take a brief break. In the next set of trials, you will continue with the same task.
        The instructions are displayed below, in case you need a refresher.
        Press the space bar when you are ready to continue.</p>
        <p>In this task, you will see a series of objects. On some trials, your job is to determine
        whether the object shown is a color photograph or a line drawing. On other trials, your job
        is to determine whether the object represented is animate or inanimate.

        <br><br>
        You will know which response to make depending on the initial display, which will say
        ""animate / inanimate"" or ""photo / drawing"".
        <br>
        You will be able to use the left arrow key to report animate/photo and the right arrow key to report inanimate/drawing.
        <br>
        Please respond as quickly as possible, and use your dominant hand to make your responses.
        <br><br>
        You will be able to use the left arrow key to report animate/photo and the right arrow key to report inanimate/drawing.
        <br><br>
        <img src=""/static/instructions_pics/visual_pic.png"" height=""300px"">
        <br>
        In the example in the top row, the correct response is animate (left arrow key). In the example in the bottom row, the correct response is photo (left arrow key).
        <br>
        <br>When you are ready to begin, press the space bar.</p>", ,,,,,,,,,,,,,MEM,MEM_0074,2022-12-08 22:30:33
,visual-trial,109,945158,0.0-109.0,,,,,591.0,,,arrowright,animate (left arrow)&emsp;&emsp;&emsp;&emsp;inanimate (right arrow),semantic,3000.0,,/static/object_pics/drawing_fruit/lemon.jpg,7000.0,inanimate,drawing,1467.2256263760898,True,,MEM,MEM_0074,2022-12-08 22:30:33
,visual-trial,110,949631,0.0-110.0,,,,,696.0,,,arrowright,photo (left arrow)&emsp;&emsp;&emsp;&emsp;drawing (right arrow),perceptual,3000.0,,/static/object_pics/drawing_mammal/antelope.jpg,7000.0,animate,drawing,762.2118370477378,True,,MEM,MEM_0074,2022-12-08 22:30:33
,visual-trial,111,954702,0.0-111.0,,,,,607.0,,,arrowleft,photo (left arrow)&emsp;&emsp;&emsp;&emsp;drawing (right arrow),perceptual,3000.0,,/static/object_pics/picture_sea/swordfish.jpg,7000.0,animate,photo,1448.3906358758043,True,,MEM,MEM_0074,2022-12-08 22:30:33
,visual-trial,112,960719,0.0-112.0,,,,,1584.0,,,arrowleft,photo (left arrow)&emsp;&emsp;&emsp;&emsp;drawing (right arrow),perceptual,3000.0,,/static/object_pics/picture_clothe/tie.jpg,7000.0,inanimate,photo,1418.4405035181862,True,,MEM,MEM_0074,2022-12-08 22:30:33
,visual-trial,113,965468,0.0-113.0,,,,,790.0,,,arrowright,photo (left arrow)&emsp;&emsp;&emsp;&emsp;drawing (right arrow),perceptual,3000.0,,/static/object_pics/drawing_electronic/calculator.jpg,7000.0,inanimate,drawing,945.4581047736369,True,,MEM,MEM_0074,2022-12-08 22:30:33
,visual-trial,114,970676,0.0-114.0,,,,,877.0,,,arrowright,animate (left arrow)&emsp;&emsp;&emsp;&emsp;inanimate (right arrow),semantic,3000.0,,/static/object_pics/drawing_fruit/orange.jpg,7000.0,inanimate,drawing,1317.1300032268105,True,,MEM,MEM_0074,2022-12-08 22:30:33
,visual-trial,115,975271,0.0-115.0,,,,,536.0,,,arrowright,photo (left arrow)&emsp;&emsp;&emsp;&emsp;drawing (right arrow),perceptual,3000.0,,/static/object_pics/drawing_mammal/wolf.jpg,7000.0,animate,drawing,1049.758218043747,True,,MEM,MEM_0074,2022-12-08 22:30:33
,visual-trial,116,979723,0.0-116.0,,,,,620.0,,,arrowright,animate (left arrow)&emsp;&emsp;&emsp;&emsp;inanimate (right arrow),semantic,3000.0,,/static/object_pics/picture_veggie/onions.jpg,7000.0,inanimate,photo,820.1122341585306,True,,MEM,MEM_0074,2022-12-08 22:30:33
,visual-trial,117,985225,0.0-117.0,,,,,1042.0,,,arrowright,animate (left arrow)&emsp;&emsp;&emsp;&emsp;inanimate (right arrow),semantic,3000.0,,/static/object_pics/picture_clothe/scarf.jpg,7000.0,inanimate,photo,1442.032715493871,True,,MEM,MEM_0074,2022-12-08 22:30:33
,visual-trial,118,989760,0.0-118.0,,,,,810.0,,,arrowleft,photo (left arrow)&emsp;&emsp;&emsp;&emsp;drawing (right arrow),perceptual,3000.0,,/static/object_pics/picture_veggie/beetroot.jpg,7000.0,inanimate,photo,711.9137751365458,True,,MEM,MEM_0074,2022-12-08 22:30:33
,visual-trial,119,994831,0.0-119.0,,,,,824.0,,,arrowright,animate (left arrow)&emsp;&emsp;&emsp;&emsp;inanimate (right arrow),semantic,3000.0,,/static/object_pics/picture_veggie/aubergine.jpg,7000.0,inanimate,photo,1235.895452768446,True,,MEM,MEM_0074,2022-12-08 22:30:33
,visual-trial,120,999852,0.0-120.0,,,,,1061.0,,,arrowleft,animate (left arrow)&emsp;&emsp;&emsp;&emsp;inanimate (right arrow),semantic,3000.0,,/static/object_pics/picture_insect/grasshopper.jpg,7000.0,animate,photo,947.1578561441813,True,,MEM,MEM_0074,2022-12-08 22:30:33
,visual-trial,121,1004360,0.0-121.0,,,,,649.0,,,arrowleft,photo (left arrow)&emsp;&emsp;&emsp;&emsp;drawing (right arrow),perceptual,3000.0,,/static/object_pics/picture_insect/scorpion.jpg,7000.0,animate,photo,844.0963728601163,True,,MEM,MEM_0074,2022-12-08 22:30:33
,visual-trial,122,1008792,0.0-122.0,,,,,665.0,,,arrowright,photo (left arrow)&emsp;&emsp;&emsp;&emsp;drawing (right arrow),perceptual,3000.0,,/static/object_pics/drawing_fruit/pear.jpg,7000.0,inanimate,drawing,751.9804737230739,True,,MEM,MEM_0074,2022-12-08 22:30:33
,visual-trial,123,1013063,0.0-123.0,,,,,609.0,,,arrowright,photo (left arrow)&emsp;&emsp;&emsp;&emsp;drawing (right arrow),perceptual,3000.0,,/static/object_pics/drawing_mammal/lion.jpg,7000.0,animate,drawing,651.2561134000936,True,,MEM,MEM_0074,2022-12-08 22:30:33
,visual-trial,124,1018043,0.0-124.0,,,,,636.0,,,arrowright,photo (left arrow)&emsp;&emsp;&emsp;&emsp;drawing (right arrow),perceptual,3000.0,,/static/object_pics/drawing_mammal/giraffe.jpg,7000.0,animate,drawing,1332.5342773927591,True,,MEM,MEM_0074,2022-12-08 22:30:33
,visual-trial,125,1022089,0.0-125.0,,,,,466.0,,,arrowleft,photo (left arrow)&emsp;&emsp;&emsp;&emsp;drawing (right arrow),perceptual,3000.0,,/static/object_pics/picture_sea/seaturtle.jpg,7000.0,animate,photo,569.5445399426058,True,,MEM,MEM_0074,2022-12-08 22:30:33
,visual-trial,126,1027034,0.0-126.0,,,,,555.0,,,arrowleft,photo (left arrow)&emsp;&emsp;&emsp;&emsp;drawing (right arrow),perceptual,3000.0,,/static/object_pics/picture_clothe/sock02.jpg,7000.0,inanimate,photo,1377.011554517442,True,,MEM,MEM_0074,2022-12-08 22:30:33
,visual-trial,127,1031749,0.0-127.0,,,,,662.0,,,arrowright,photo (left arrow)&emsp;&emsp;&emsp;&emsp;drawing (right arrow),perceptual,3000.0,,/static/object_pics/drawing_bird/peacock.jpg,7000.0,animate,drawing,1036.2214409029339,True,,MEM,MEM_0074,2022-12-08 22:30:33
,visual-trial,128,1036244,0.0-128.0,,,,,766.0,,,arrowleft,animate (left arrow)&emsp;&emsp;&emsp;&emsp;inanimate (right arrow),semantic,3000.0,,/static/object_pics/drawing_bird/eagle.jpg,7000.0,animate,drawing,712.732955674289,True,,MEM,MEM_0074,2022-12-08 22:30:33
,visual-trial,129,1040588,0.0-129.0,,,,,621.0,,,arrowright,photo (left arrow)&emsp;&emsp;&emsp;&emsp;drawing (right arrow),perceptual,3000.0,,/static/object_pics/drawing_fruit/pineapple.jpg,7000.0,inanimate,drawing,708.640401414064,True,,MEM,MEM_0074,2022-12-08 22:30:33
,visual-trial,130,1045299,0.0-130.0,,,,,829.0,,,arrowleft,animate (left arrow)&emsp;&emsp;&emsp;&emsp;inanimate (right arrow),semantic,3000.0,,/static/object_pics/drawing_mammal/kangaroo.jpg,7000.0,animate,drawing,868.7887626950794,True,,MEM,MEM_0074,2022-12-08 22:30:33
,visual-trial,131,1049916,0.0-131.0,,,,,661.0,,,arrowright,photo (left arrow)&emsp;&emsp;&emsp;&emsp;drawing (right arrow),perceptual,3000.0,,/static/object_pics/drawing_bird/pigeon.jpg,7000.0,animate,drawing,941.8068053709023,True,,MEM,MEM_0074,2022-12-08 22:30:33
,visual-trial,132,1054639,0.0-132.0,,,,,648.0,,,arrowright,animate (left arrow)&emsp;&emsp;&emsp;&emsp;inanimate (right arrow),semantic,3000.0,,/static/object_pics/picture_veggie/cucumber.jpg,7000.0,inanimate,photo,1058.8452370772957,True,,MEM,MEM_0074,2022-12-08 22:30:33
,visual-trial,133,1058840,0.0-133.0,,,,,617.0,,,arrowleft,photo (left arrow)&emsp;&emsp;&emsp;&emsp;drawing (right arrow),perceptual,3000.0,,/static/object_pics/picture_veggie/cauliflower.jpg,7000.0,inanimate,photo,572.5395589174094,True,,MEM,MEM_0074,2022-12-08 22:30:33
,visual-trial,134,1064234,0.0-134.0,,,,,1099.0,,,arrowleft,photo (left arrow)&emsp;&emsp;&emsp;&emsp;drawing (right arrow),perceptual,3000.0,,/static/object_pics/picture_veggie/potato.jpg,7000.0,inanimate,photo,1282.9401893232198,True,,MEM,MEM_0074,2022-12-08 22:30:33
,visual-trial,135,1069299,0.0-135.0,,,,,700.0,,,arrowright,animate (left arrow)&emsp;&emsp;&emsp;&emsp;inanimate (right arrow),semantic,3000.0,,/static/object_pics/drawing_fruit/apricot.jpg,7000.0,inanimate,drawing,1354.2742730621899,True,,MEM,MEM_0074,2022-12-08 22:30:33
,visual-trial,136,1073670,0.0-136.0,,,,,584.0,,,arrowright,photo (left arrow)&emsp;&emsp;&emsp;&emsp;drawing (right arrow),perceptual,3000.0,,/static/object_pics/drawing_bird/hen.jpg,7000.0,animate,drawing,771.516721399929,True,,MEM,MEM_0074,2022-12-08 22:30:33
,visual-trial,137,1078791,0.0-137.0,,,,,793.0,,,arrowleft,photo (left arrow)&emsp;&emsp;&emsp;&emsp;drawing (right arrow),perceptual,3000.0,,/static/object_pics/picture_veggie/corn.jpg,7000.0,inanimate,photo,1313.4893423990354,True,,MEM,MEM_0074,2022-12-08 22:30:33
,visual-trial,138,1084254,0.0-138.0,,,,,984.0,,,arrowright,animate (left arrow)&emsp;&emsp;&emsp;&emsp;inanimate (right arrow),semantic,3000.0,,/static/object_pics/drawing_electronic/phone.jpg,7000.0,inanimate,drawing,1463.8168804642478,True,,MEM,MEM_0074,2022-12-08 22:30:33
,visual-trial,139,1089005,0.0-139.0,,,,,542.0,,,arrowleft,photo (left arrow)&emsp;&emsp;&emsp;&emsp;drawing (right arrow),perceptual,3000.0,,/static/object_pics/picture_sea/starfish02.jpg,7000.0,animate,photo,1192.009162092219,True,,MEM,MEM_0074,2022-12-08 22:30:33
,visual-trial,140,1093661,0.0-140.0,,,,,582.0,,,arrowright,photo (left arrow)&emsp;&emsp;&emsp;&emsp;drawing (right arrow),perceptual,3000.0,,/static/object_pics/drawing_electronic/microphone.jpg,7000.0,inanimate,drawing,1063.0841067710762,True,,MEM,MEM_0074,2022-12-08 22:30:33
,html-keyboard-response,141,1098806,0.0-141.0,,,,,5144.0,"
      <p>Thank you for your participation!</p>
      The goal of this study is to replicate previous findings that the timing of responses in memory-dependent tasks
      is rhythmic in nature (compared to the timing of responses in memory-independent tasks).
      You performed the memory-independent tasks in this study.
      <br>
      Your participation will allow us to better understand how memory works.
      Please do not share this information with other potential participants.
      <br>
      Press the space bar to continue.</p>", ,,,,,,,,,,,,,MEM,MEM_0074,2022-12-08 22:30:33
