success,trial_type,trial_index,time_elapsed,internal_node_id,timeout,failed_images,failed_audio,failed_video,rt,stimulus,response,instruction,instruction_class,instruction_duration,prompt,object,object_duration,animacy,style,jitter,accurate,key,question_order,exp,subjectId,date
True,fullscreen,0,5703,0.0-0.0,,,,,,,,,,,,,,,,,,,,MEM,MEM_0070,2022-12-08 22:16:42
True,preload,1,10076,0.0-1.0,False,[],[],[],,,,,,,,,,,,,,,,MEM,MEM_0070,2022-12-08 22:16:42
,html-keyboard-response,2,58964,0.0-2.0,,,,,48888.0,"
      <p>In this task, you will see a series of objects. On some trials, your job is to determine
      whether the object shown is a color photograph or a line drawing. On other trials, your job
      is to determine whether the object represented is animate or inanimate.

      <br><br>
      You will know which response to make depending on the initial display, which will say
      ""animate / inanimate"" or ""photo / drawing"".
      <br>
      <br>
      You will be able to use the left arrow key to report animate/photo and the right arrow key to report inanimate/drawing.
      <br>
      Please respond as quickly as possible, and use your dominant hand to make your responses.
      <br><br>
      <img src=""/static/instructions_pics/visual_pic.png"" height=""300px"">
      <br>
      In the example in the top row, the correct response is animate (left arrow key). In the example in the bottom row, the correct response is photo (left arrow key).
      <br>
      <br>You will first do some practice trials. When you are ready to begin, press the space bar.</p>", ,,,,,,,,,,,,,MEM,MEM_0070,2022-12-08 22:16:42
,visual-trial,3,70375,0.0-3.0,,,,,,,,animate (left arrow)&emsp;&emsp;&emsp;&emsp;inanimate (right arrow),semantic,3000.0,,/static/for_instructions/object_pics/drawing_bird/heron.jpg,7000.0,animate,drawing,1384.7599114539366,False,,,MEM,MEM_0070,2022-12-08 22:16:42
,visual-trial,4,81017,0.0-4.0,,,,,,,,photo (left arrow)&emsp;&emsp;&emsp;&emsp;drawing (right arrow),perceptual,3000.0,,/static/for_instructions/object_pics/picture_electronic/flashlight.jpg,7000.0,inanimate,photo,615.2598040279296,False,,,MEM,MEM_0070,2022-12-08 22:16:42
,visual-trial,5,87518,0.0-5.0,,,,,2231.0,,,animate (left arrow)&emsp;&emsp;&emsp;&emsp;inanimate (right arrow),semantic,3000.0,,/static/for_instructions/object_pics/drawing_clothe/hockey helmet.jpg,7000.0,inanimate,drawing,1252.0366010631747,True,arrowright,,MEM,MEM_0070,2022-12-08 22:16:42
,visual-trial,6,92994,0.0-6.0,,,,,1499.0,,,photo (left arrow)&emsp;&emsp;&emsp;&emsp;drawing (right arrow),perceptual,3000.0,,/static/for_instructions/object_pics/picture_veggie/avocado.jpg,7000.0,inanimate,photo,964.2977322665389,True,arrowleft,,MEM,MEM_0070,2022-12-08 22:16:42
,survey-multi-choice,7,104783,0.0-7.0-0.0,,,,,11787.0,,"{'Style': 'True', 'Animacy': 'True'}",,,,,,,,,,,,"[0, 1]",MEM,MEM_0070,2022-12-08 22:16:42
,html-keyboard-response,8,111211,0.0-8.0,,,,,6422.0,"
      <p>Great job! Now you'll continue onto doing the main task.
      You will have the opportunity to take brief breaks at various points.
      Good luck!<br>Press the space bar to continue.</p>", ,,,,,,,,,,,,,MEM,MEM_0070,2022-12-08 22:16:42
True,fullscreen,9,116536,0.0-9.0,,,,,,,,,,,,,,,,,,,,MEM,MEM_0070,2022-12-08 22:16:42
,visual-trial,10,122821,0.0-10.0,,,,,1910.0,,,photo (left arrow)&emsp;&emsp;&emsp;&emsp;drawing (right arrow),perceptual,3000.0,,/static/object_pics/drawing_veggie/pepper.jpg,7000.0,inanimate,drawing,1362.6109857814781,True,arrowright,,MEM,MEM_0070,2022-12-08 22:16:42
,visual-trial,11,127740,0.0-11.0,,,,,1333.0,,,photo (left arrow)&emsp;&emsp;&emsp;&emsp;drawing (right arrow),perceptual,3000.0,,/static/object_pics/picture_fruit/pomegranate.jpg,7000.0,inanimate,photo,562.5888975585251,True,arrowleft,,MEM,MEM_0070,2022-12-08 22:16:42
,visual-trial,12,132996,0.0-12.0,,,,,1604.0,,,animate (left arrow)&emsp;&emsp;&emsp;&emsp;inanimate (right arrow),semantic,3000.0,,/static/object_pics/picture_clothe/scarf.jpg,7000.0,inanimate,photo,638.3712216009774,False,arrowleft,,MEM,MEM_0070,2022-12-08 22:16:42
,visual-trial,13,137669,0.0-13.0,,,,,1142.0,,,animate (left arrow)&emsp;&emsp;&emsp;&emsp;inanimate (right arrow),semantic,3000.0,,/static/object_pics/drawing_bird/hummingbird.jpg,7000.0,animate,drawing,506.9848534772308,False,arrowright,,MEM,MEM_0070,2022-12-08 22:16:42
,visual-trial,14,143408,0.0-14.0,,,,,1408.0,,,animate (left arrow)&emsp;&emsp;&emsp;&emsp;inanimate (right arrow),semantic,3000.0,,/static/object_pics/drawing_insect/centipede.jpg,7000.0,animate,drawing,1313.746803884307,True,arrowleft,,MEM,MEM_0070,2022-12-08 22:16:42
,visual-trial,15,148531,0.0-15.0,,,,,1509.0,,,photo (left arrow)&emsp;&emsp;&emsp;&emsp;drawing (right arrow),perceptual,3000.0,,/static/object_pics/picture_fruit/apricot.jpg,7000.0,inanimate,photo,602.8724665771315,True,arrowleft,,MEM,MEM_0070,2022-12-08 22:16:42
,visual-trial,16,154059,0.0-16.0,,,,,1244.0,,,photo (left arrow)&emsp;&emsp;&emsp;&emsp;drawing (right arrow),perceptual,3000.0,,/static/object_pics/picture_sea/shrimp.jpg,7000.0,animate,photo,1271.1947036024,True,arrowleft,,MEM,MEM_0070,2022-12-08 22:16:42
,visual-trial,17,159328,0.0-17.0,,,,,985.0,,,photo (left arrow)&emsp;&emsp;&emsp;&emsp;drawing (right arrow),perceptual,3000.0,,/static/object_pics/picture_mammal/gorilla.jpg,7000.0,animate,photo,1273.5071299760111,True,arrowleft,,MEM,MEM_0070,2022-12-08 22:16:42
,visual-trial,18,164240,0.0-18.0,,,,,1055.0,,,animate (left arrow)&emsp;&emsp;&emsp;&emsp;inanimate (right arrow),semantic,3000.0,,/static/object_pics/picture_fruit/strawberry.jpg,7000.0,inanimate,photo,841.9610657207884,False,arrowleft,,MEM,MEM_0070,2022-12-08 22:16:42
,visual-trial,19,169127,0.0-19.0,,,,,1128.0,,,animate (left arrow)&emsp;&emsp;&emsp;&emsp;inanimate (right arrow),semantic,3000.0,,/static/object_pics/picture_clothe/football sneaker.jpg,7000.0,inanimate,photo,744.619689447966,False,arrowleft,,MEM,MEM_0070,2022-12-08 22:16:42
,visual-trial,20,174467,0.0-20.0,,,,,957.0,,,photo (left arrow)&emsp;&emsp;&emsp;&emsp;drawing (right arrow),perceptual,3000.0,,/static/object_pics/drawing_veggie/cucumber.jpg,7000.0,inanimate,drawing,1372.540201197524,True,arrowright,,MEM,MEM_0070,2022-12-08 22:16:42
,visual-trial,21,178953,0.0-21.0,,,,,899.0,,,photo (left arrow)&emsp;&emsp;&emsp;&emsp;drawing (right arrow),perceptual,3000.0,,/static/object_pics/picture_mammal/rabbit.jpg,7000.0,animate,photo,566.0492112679592,True,arrowleft,,MEM,MEM_0070,2022-12-08 22:16:42
,visual-trial,22,183649,0.0-22.0,,,,,898.0,,,photo (left arrow)&emsp;&emsp;&emsp;&emsp;drawing (right arrow),perceptual,3000.0,,/static/object_pics/drawing_bird/canary.jpg,7000.0,animate,drawing,785.494628653569,True,arrowright,,MEM,MEM_0070,2022-12-08 22:16:42
,visual-trial,23,188694,0.0-23.0,,,,,1128.0,,,animate (left arrow)&emsp;&emsp;&emsp;&emsp;inanimate (right arrow),semantic,3000.0,,/static/object_pics/picture_sea/mantaray.jpg,7000.0,animate,photo,902.2943074857783,True,arrowleft,,MEM,MEM_0070,2022-12-08 22:16:42
,visual-trial,24,193886,0.0-24.0,,,,,1024.0,,,photo (left arrow)&emsp;&emsp;&emsp;&emsp;drawing (right arrow),perceptual,3000.0,,/static/object_pics/drawing_insect/fly.jpg,7000.0,animate,drawing,1153.9843718082745,True,arrowright,,MEM,MEM_0070,2022-12-08 22:16:42
,visual-trial,25,198170,0.0-25.0,,,,,747.0,,,animate (left arrow)&emsp;&emsp;&emsp;&emsp;inanimate (right arrow),semantic,3000.0,,/static/object_pics/picture_fruit/banana.jpg,7000.0,inanimate,photo,525.4032346855695,False,arrowleft,,MEM,MEM_0070,2022-12-08 22:16:42
,visual-trial,26,202416,0.0-26.0,,,,,690.0,,,animate (left arrow)&emsp;&emsp;&emsp;&emsp;inanimate (right arrow),semantic,3000.0,,/static/object_pics/drawing_bird/toucan.jpg,7000.0,animate,drawing,545.8726484017207,False,arrowright,,MEM,MEM_0070,2022-12-08 22:16:42
,visual-trial,27,207431,0.0-27.0,,,,,873.0,,,photo (left arrow)&emsp;&emsp;&emsp;&emsp;drawing (right arrow),perceptual,3000.0,,/static/object_pics/picture_fruit/cherry.jpg,7000.0,inanimate,photo,1130.8097449403156,True,arrowleft,,MEM,MEM_0070,2022-12-08 22:16:42
,visual-trial,28,212165,0.0-28.0,,,,,934.0,,,animate (left arrow)&emsp;&emsp;&emsp;&emsp;inanimate (right arrow),semantic,3000.0,,/static/object_pics/drawing_electronic/hairdryer.jpg,7000.0,inanimate,drawing,787.8770695259227,True,arrowright,,MEM,MEM_0070,2022-12-08 22:16:42
,visual-trial,29,217638,0.0-29.0,,,,,1172.0,,,photo (left arrow)&emsp;&emsp;&emsp;&emsp;drawing (right arrow),perceptual,3000.0,,/static/object_pics/drawing_electronic/satellite dish.jpg,7000.0,inanimate,drawing,1274.8217799603244,True,arrowright,,MEM,MEM_0070,2022-12-08 22:16:42
,visual-trial,30,223065,0.0-30.0,,,,,913.0,,,photo (left arrow)&emsp;&emsp;&emsp;&emsp;drawing (right arrow),perceptual,3000.0,,/static/object_pics/drawing_electronic/radio.jpg,7000.0,inanimate,drawing,1496.2906171064583,True,arrowright,,MEM,MEM_0070,2022-12-08 22:16:42
,visual-trial,31,227743,0.0-31.0,,,,,881.0,,,photo (left arrow)&emsp;&emsp;&emsp;&emsp;drawing (right arrow),perceptual,3000.0,,/static/object_pics/drawing_bird/pelican.jpg,7000.0,animate,drawing,780.3191536017722,True,arrowright,,MEM,MEM_0070,2022-12-08 22:16:42
,visual-trial,32,232091,0.0-32.0,,,,,765.0,,,photo (left arrow)&emsp;&emsp;&emsp;&emsp;drawing (right arrow),perceptual,3000.0,,/static/object_pics/drawing_veggie/beetroot.jpg,7000.0,inanimate,drawing,566.8437079638069,True,arrowright,,MEM,MEM_0070,2022-12-08 22:16:42
,visual-trial,33,237127,0.0-33.0,,,,,736.0,,,animate (left arrow)&emsp;&emsp;&emsp;&emsp;inanimate (right arrow),semantic,3000.0,,/static/object_pics/drawing_bird/pigeon.jpg,7000.0,animate,drawing,1288.5289932664248,False,arrowright,,MEM,MEM_0070,2022-12-08 22:16:42
,visual-trial,34,242178,0.0-34.0,,,,,708.0,,,photo (left arrow)&emsp;&emsp;&emsp;&emsp;drawing (right arrow),perceptual,3000.0,,/static/object_pics/picture_mammal/camel.jpg,7000.0,animate,photo,1327.7583174171223,True,arrowleft,,MEM,MEM_0070,2022-12-08 22:16:42
,visual-trial,35,246705,0.0-35.0,,,,,722.0,,,animate (left arrow)&emsp;&emsp;&emsp;&emsp;inanimate (right arrow),semantic,3000.0,,/static/object_pics/drawing_bird/penguin.jpg,7000.0,animate,drawing,794.2124984319792,False,arrowright,,MEM,MEM_0070,2022-12-08 22:16:42
,visual-trial,36,252339,0.0-36.0,,,,,1980.0,,,animate (left arrow)&emsp;&emsp;&emsp;&emsp;inanimate (right arrow),semantic,3000.0,,/static/object_pics/drawing_insect/bumble bee.jpg,7000.0,animate,drawing,639.4377625620644,False,arrowright,,MEM,MEM_0070,2022-12-08 22:16:42
,visual-trial,37,257812,0.0-37.0,,,,,1445.0,,,animate (left arrow)&emsp;&emsp;&emsp;&emsp;inanimate (right arrow),semantic,3000.0,,/static/object_pics/drawing_insect/cockroach.jpg,7000.0,animate,drawing,1013.3945846725145,False,arrowright,,MEM,MEM_0070,2022-12-08 22:16:42
,visual-trial,38,262995,0.0-38.0,,,,,852.0,,,photo (left arrow)&emsp;&emsp;&emsp;&emsp;drawing (right arrow),perceptual,3000.0,,/static/object_pics/picture_mammal/bison.jpg,7000.0,animate,photo,1315.09213916128,True,arrowleft,,MEM,MEM_0070,2022-12-08 22:16:42
,visual-trial,39,267495,0.0-39.0,,,,,809.0,,,photo (left arrow)&emsp;&emsp;&emsp;&emsp;drawing (right arrow),perceptual,3000.0,,/static/object_pics/drawing_bird/hen.jpg,7000.0,animate,drawing,678.8688292986229,True,arrowright,,MEM,MEM_0070,2022-12-08 22:16:42
,visual-trial,40,274455,0.0-40.0,,,,,2553.0,,,animate (left arrow)&emsp;&emsp;&emsp;&emsp;inanimate (right arrow),semantic,3000.0,,/static/object_pics/drawing_veggie/carrots.jpg,7000.0,inanimate,drawing,1391.4597152423949,False,arrowleft,,MEM,MEM_0070,2022-12-08 22:16:42
,visual-trial,41,280656,0.0-41.0,,,,,1729.0,,,animate (left arrow)&emsp;&emsp;&emsp;&emsp;inanimate (right arrow),semantic,3000.0,,/static/object_pics/picture_sea/piranha.jpg,7000.0,animate,photo,1458.2622333767035,False,arrowright,,MEM,MEM_0070,2022-12-08 22:16:42
,html-keyboard-response,42,318487,0.0-42.0,,,,,37828.0,"
        <p>In that last set of trials, you were correct 63% of the time.</p>
        <p>Feel free to take a brief break. In the next set of trials, you will continue with the same task.
        The instructions are displayed below, in case you need a refresher.
        Press the space bar when you are ready to continue.</p>
        <p>In this task, you will see a series of objects. On some trials, your job is to determine
        whether the object shown is a color photograph or a line drawing. On other trials, your job
        is to determine whether the object represented is animate or inanimate.

        <br><br>
        You will know which response to make depending on the initial display, which will say
        ""animate / inanimate"" or ""photo / drawing"".
        <br>
        You will be able to use the left arrow key to report animate/photo and the right arrow key to report inanimate/drawing.
        <br>
        Please respond as quickly as possible, and use your dominant hand to make your responses.
        <br><br>
        You will be able to use the left arrow key to report animate/photo and the right arrow key to report inanimate/drawing.
        <br><br>
        <img src=""/static/instructions_pics/visual_pic.png"" height=""300px"">
        <br>
        In the example in the top row, the correct response is animate (left arrow key). In the example in the bottom row, the correct response is photo (left arrow key).
        <br>
        <br>When you are ready to begin, press the space bar.</p>", ,,,,,,,,,,,,,MEM,MEM_0070,2022-12-08 22:16:42
,visual-trial,43,323520,0.0-43.0,,,,,1057.0,,,photo (left arrow)&emsp;&emsp;&emsp;&emsp;drawing (right arrow),perceptual,3000.0,,/static/object_pics/drawing_veggie/artichoke.jpg,7000.0,inanimate,drawing,952.364133045549,True,arrowright,,MEM,MEM_0070,2022-12-08 22:16:42
,visual-trial,44,328692,0.0-44.0,,,,,1069.0,,,photo (left arrow)&emsp;&emsp;&emsp;&emsp;drawing (right arrow),perceptual,3000.0,,/static/object_pics/picture_clothe/gloves.jpg,7000.0,inanimate,photo,1087.9461840330137,True,arrowleft,,MEM,MEM_0070,2022-12-08 22:16:42
,visual-trial,45,334245,0.0-45.0,,,,,1327.0,,,animate (left arrow)&emsp;&emsp;&emsp;&emsp;inanimate (right arrow),semantic,3000.0,,/static/object_pics/picture_fruit/kiwi.jpg,7000.0,inanimate,photo,1210.8041423975262,True,arrowright,,MEM,MEM_0070,2022-12-08 22:16:42
,visual-trial,46,340150,0.0-46.0,,,,,1575.0,,,animate (left arrow)&emsp;&emsp;&emsp;&emsp;inanimate (right arrow),semantic,3000.0,,/static/object_pics/picture_clothe/sport t-shirt.jpg,7000.0,inanimate,photo,1308.7543158298074,False,arrowleft,,MEM,MEM_0070,2022-12-08 22:16:42
,visual-trial,47,345803,0.0-47.0,,,,,1451.0,,,photo (left arrow)&emsp;&emsp;&emsp;&emsp;drawing (right arrow),perceptual,3000.0,,/static/object_pics/picture_clothe/jeans.jpg,7000.0,inanimate,photo,1183.9506430162146,True,arrowleft,,MEM,MEM_0070,2022-12-08 22:16:42
,visual-trial,48,350326,0.0-48.0,,,,,911.0,,,photo (left arrow)&emsp;&emsp;&emsp;&emsp;drawing (right arrow),perceptual,3000.0,,/static/object_pics/picture_sea/seal.jpg,7000.0,animate,photo,600.2886861994243,True,arrowleft,,MEM,MEM_0070,2022-12-08 22:16:42
,visual-trial,49,355814,0.0-49.0,,,,,1952.0,,,photo (left arrow)&emsp;&emsp;&emsp;&emsp;drawing (right arrow),perceptual,3000.0,,/static/object_pics/picture_fruit/pineapple.jpg,7000.0,inanimate,photo,520.8954456663504,True,arrowleft,,MEM,MEM_0070,2022-12-08 22:16:42
,visual-trial,50,361713,0.0-50.0,,,,,1771.0,,,photo (left arrow)&emsp;&emsp;&emsp;&emsp;drawing (right arrow),perceptual,3000.0,,/static/object_pics/drawing_electronic/calculator.jpg,7000.0,inanimate,drawing,1113.9633068112212,True,arrowright,,MEM,MEM_0070,2022-12-08 22:16:42
,visual-trial,51,366498,0.0-51.0,,,,,844.0,,,animate (left arrow)&emsp;&emsp;&emsp;&emsp;inanimate (right arrow),semantic,3000.0,,/static/object_pics/drawing_veggie/tomato.jpg,7000.0,inanimate,drawing,931.8364816595986,False,arrowleft,,MEM,MEM_0070,2022-12-08 22:16:42
,visual-trial,52,371962,0.0-52.0,,,,,1707.0,,,photo (left arrow)&emsp;&emsp;&emsp;&emsp;drawing (right arrow),perceptual,3000.0,,/static/object_pics/picture_sea/pufferfish.jpg,7000.0,animate,photo,743.2040934845696,True,arrowleft,,MEM,MEM_0070,2022-12-08 22:16:42
,visual-trial,53,377946,0.0-53.0,,,,,1588.0,,,animate (left arrow)&emsp;&emsp;&emsp;&emsp;inanimate (right arrow),semantic,3000.0,,/static/object_pics/picture_mammal/lion.jpg,7000.0,animate,photo,1382.4917902904408,False,arrowright,,MEM,MEM_0070,2022-12-08 22:16:42
,visual-trial,54,383332,0.0-54.0,,,,,1126.0,,,animate (left arrow)&emsp;&emsp;&emsp;&emsp;inanimate (right arrow),semantic,3000.0,,/static/object_pics/drawing_electronic/gamepad.jpg,7000.0,inanimate,drawing,1236.0616194901284,False,arrowleft,,MEM,MEM_0070,2022-12-08 22:16:42
,visual-trial,55,389218,0.0-55.0,,,,,2132.0,,,animate (left arrow)&emsp;&emsp;&emsp;&emsp;inanimate (right arrow),semantic,3000.0,,/static/object_pics/drawing_veggie/asparagus.jpg,7000.0,inanimate,drawing,738.0793548483775,False,arrowleft,,MEM,MEM_0070,2022-12-08 22:16:42
,visual-trial,56,393962,0.0-56.0,,,,,939.0,,,animate (left arrow)&emsp;&emsp;&emsp;&emsp;inanimate (right arrow),semantic,3000.0,,/static/object_pics/picture_fruit/apple.jpg,7000.0,inanimate,photo,788.976643886285,True,arrowright,,MEM,MEM_0070,2022-12-08 22:16:42
,visual-trial,57,400653,0.0-57.0,,,,,2677.0,,,animate (left arrow)&emsp;&emsp;&emsp;&emsp;inanimate (right arrow),semantic,3000.0,,/static/object_pics/picture_mammal/antelope.jpg,7000.0,animate,photo,1002.3585509374027,False,arrowright,,MEM,MEM_0070,2022-12-08 22:16:42
,visual-trial,58,406090,0.0-58.0,,,,,1485.0,,,animate (left arrow)&emsp;&emsp;&emsp;&emsp;inanimate (right arrow),semantic,3000.0,,/static/object_pics/picture_mammal/giraffe.jpg,7000.0,animate,photo,928.2742313876868,False,arrowright,,MEM,MEM_0070,2022-12-08 22:16:42
,visual-trial,59,411867,0.0-59.0,,,,,1708.0,,,animate (left arrow)&emsp;&emsp;&emsp;&emsp;inanimate (right arrow),semantic,3000.0,,/static/object_pics/drawing_bird/ostrich.jpg,7000.0,animate,drawing,1049.7107959824837,True,arrowleft,,MEM,MEM_0070,2022-12-08 22:16:42
,visual-trial,60,417348,0.0-60.0,,,,,1198.0,,,photo (left arrow)&emsp;&emsp;&emsp;&emsp;drawing (right arrow),perceptual,3000.0,,/static/object_pics/drawing_insect/snail.jpg,7000.0,animate,drawing,1273.436444297029,True,arrowright,,MEM,MEM_0070,2022-12-08 22:16:42
,visual-trial,61,422258,0.0-61.0,,,,,948.0,,,animate (left arrow)&emsp;&emsp;&emsp;&emsp;inanimate (right arrow),semantic,3000.0,,/static/object_pics/drawing_electronic/coffee maker.jpg,7000.0,inanimate,drawing,951.2262618036573,False,arrowleft,,MEM,MEM_0070,2022-12-08 22:16:42
,visual-trial,62,428838,0.0-62.0,,,,,2664.0,,,photo (left arrow)&emsp;&emsp;&emsp;&emsp;drawing (right arrow),perceptual,3000.0,,/static/object_pics/picture_sea/shark.jpg,7000.0,animate,photo,906.2722765326088,True,arrowleft,,MEM,MEM_0070,2022-12-08 22:16:42
,visual-trial,63,433979,0.0-63.0,,,,,1197.0,,,photo (left arrow)&emsp;&emsp;&emsp;&emsp;drawing (right arrow),perceptual,3000.0,,/static/object_pics/picture_clothe/shirt.jpg,7000.0,inanimate,photo,930.8901381668375,True,arrowleft,,MEM,MEM_0070,2022-12-08 22:16:42
,visual-trial,64,438809,0.0-64.0,,,,,858.0,,,photo (left arrow)&emsp;&emsp;&emsp;&emsp;drawing (right arrow),perceptual,3000.0,,/static/object_pics/drawing_bird/duck.jpg,7000.0,animate,drawing,956.1623868224311,True,arrowright,,MEM,MEM_0070,2022-12-08 22:16:42
,visual-trial,65,443785,0.0-65.0,,,,,907.0,,,animate (left arrow)&emsp;&emsp;&emsp;&emsp;inanimate (right arrow),semantic,3000.0,,/static/object_pics/drawing_veggie/garlic.jpg,7000.0,inanimate,drawing,1056.8575356299198,False,arrowleft,,MEM,MEM_0070,2022-12-08 22:16:42
,visual-trial,66,449210,0.0-66.0,,,,,1074.0,,,photo (left arrow)&emsp;&emsp;&emsp;&emsp;drawing (right arrow),perceptual,3000.0,,/static/object_pics/drawing_insect/dragonfly.jpg,7000.0,animate,drawing,1338.3634299238493,True,arrowright,,MEM,MEM_0070,2022-12-08 22:16:42
,visual-trial,67,454445,0.0-67.0,,,,,958.0,,,photo (left arrow)&emsp;&emsp;&emsp;&emsp;drawing (right arrow),perceptual,3000.0,,/static/object_pics/picture_mammal/kangaroo.jpg,7000.0,animate,photo,1262.9885204438583,True,arrowleft,,MEM,MEM_0070,2022-12-08 22:16:42
,visual-trial,68,459793,0.0-68.0,,,,,907.0,,,photo (left arrow)&emsp;&emsp;&emsp;&emsp;drawing (right arrow),perceptual,3000.0,,/static/object_pics/picture_clothe/high heels.jpg,7000.0,inanimate,photo,1426.0617461397962,True,arrowleft,,MEM,MEM_0070,2022-12-08 22:16:42
,visual-trial,69,464930,0.0-69.0,,,,,1258.0,,,photo (left arrow)&emsp;&emsp;&emsp;&emsp;drawing (right arrow),perceptual,3000.0,,/static/object_pics/picture_clothe/dress.jpg,7000.0,inanimate,photo,865.4524627182469,True,arrowleft,,MEM,MEM_0070,2022-12-08 22:16:42
,visual-trial,70,470893,0.0-70.0,,,,,1511.0,,,animate (left arrow)&emsp;&emsp;&emsp;&emsp;inanimate (right arrow),semantic,3000.0,,/static/object_pics/drawing_electronic/remote control.jpg,7000.0,inanimate,drawing,1436.596080356494,False,arrowleft,,MEM,MEM_0070,2022-12-08 22:16:42
,visual-trial,71,475629,0.0-71.0,,,,,974.0,,,photo (left arrow)&emsp;&emsp;&emsp;&emsp;drawing (right arrow),perceptual,3000.0,,/static/object_pics/picture_sea/seaturtle.jpg,7000.0,animate,photo,745.0614609883557,True,arrowleft,,MEM,MEM_0070,2022-12-08 22:16:42
,visual-trial,72,480712,0.0-72.0,,,,,1121.0,,,animate (left arrow)&emsp;&emsp;&emsp;&emsp;inanimate (right arrow),semantic,3000.0,,/static/object_pics/picture_mammal/horse.jpg,7000.0,animate,photo,943.5508131538686,False,arrowright,,MEM,MEM_0070,2022-12-08 22:16:42
,visual-trial,73,485399,0.0-73.0,,,,,1057.0,,,animate (left arrow)&emsp;&emsp;&emsp;&emsp;inanimate (right arrow),semantic,3000.0,,/static/object_pics/drawing_veggie/cauliflower.jpg,7000.0,inanimate,drawing,612.8974351271237,False,arrowleft,,MEM,MEM_0070,2022-12-08 22:16:42
,visual-trial,74,490379,0.0-74.0,,,,,716.0,,,photo (left arrow)&emsp;&emsp;&emsp;&emsp;drawing (right arrow),perceptual,3000.0,,/static/object_pics/picture_mammal/sheep.jpg,7000.0,animate,photo,1249.7207906705403,True,arrowleft,,MEM,MEM_0070,2022-12-08 22:16:42
,html-keyboard-response,75,503301,0.0-75.0,,,,,12921.0,"
        <p>In that last set of trials, you were correct 63% of the time.</p>
        <p>Feel free to take a brief break. In the next set of trials, you will continue with the same task.
        The instructions are displayed below, in case you need a refresher.
        Press the space bar when you are ready to continue.</p>
        <p>In this task, you will see a series of objects. On some trials, your job is to determine
        whether the object shown is a color photograph or a line drawing. On other trials, your job
        is to determine whether the object represented is animate or inanimate.

        <br><br>
        You will know which response to make depending on the initial display, which will say
        ""animate / inanimate"" or ""photo / drawing"".
        <br>
        You will be able to use the left arrow key to report animate/photo and the right arrow key to report inanimate/drawing.
        <br>
        Please respond as quickly as possible, and use your dominant hand to make your responses.
        <br><br>
        You will be able to use the left arrow key to report animate/photo and the right arrow key to report inanimate/drawing.
        <br><br>
        <img src=""/static/instructions_pics/visual_pic.png"" height=""300px"">
        <br>
        In the example in the top row, the correct response is animate (left arrow key). In the example in the bottom row, the correct response is photo (left arrow key).
        <br>
        <br>When you are ready to begin, press the space bar.</p>", ,,,,,,,,,,,,,MEM,MEM_0070,2022-12-08 22:16:42
,visual-trial,76,508865,0.0-76.0,,,,,1970.0,,,animate (left arrow)&emsp;&emsp;&emsp;&emsp;inanimate (right arrow),semantic,3000.0,,/static/object_pics/drawing_bird/flamingo.jpg,7000.0,animate,drawing,578.9240259899184,True,arrowleft,,MEM,MEM_0070,2022-12-08 22:16:42
,visual-trial,77,513787,0.0-77.0,,,,,1012.0,,,photo (left arrow)&emsp;&emsp;&emsp;&emsp;drawing (right arrow),perceptual,3000.0,,/static/object_pics/drawing_electronic/laptop.jpg,7000.0,inanimate,drawing,894.8637017973817,True,arrowright,,MEM,MEM_0070,2022-12-08 22:16:42
,visual-trial,78,518387,0.0-78.0,,,,,932.0,,,photo (left arrow)&emsp;&emsp;&emsp;&emsp;drawing (right arrow),perceptual,3000.0,,/static/object_pics/drawing_bird/turkey.jpg,7000.0,animate,drawing,655.0158665317185,True,arrowright,,MEM,MEM_0070,2022-12-08 22:16:42
,visual-trial,79,522880,0.0-79.0,,,,,801.0,,,animate (left arrow)&emsp;&emsp;&emsp;&emsp;inanimate (right arrow),semantic,3000.0,,/static/object_pics/drawing_veggie/mushrooms.jpg,7000.0,inanimate,drawing,675.4081763164857,False,arrowleft,,MEM,MEM_0070,2022-12-08 22:16:42
,visual-trial,80,528208,0.0-80.0,,,,,1049.0,,,animate (left arrow)&emsp;&emsp;&emsp;&emsp;inanimate (right arrow),semantic,3000.0,,/static/object_pics/drawing_bird/owl.jpg,7000.0,animate,drawing,1268.4570327129327,True,arrowleft,,MEM,MEM_0070,2022-12-08 22:16:42
,visual-trial,81,534033,0.0-81.0,,,,,2266.0,,,photo (left arrow)&emsp;&emsp;&emsp;&emsp;drawing (right arrow),perceptual,3000.0,,/static/object_pics/picture_sea/octopus.jpg,7000.0,animate,photo,543.1433782597466,True,arrowleft,,MEM,MEM_0070,2022-12-08 22:16:42
,visual-trial,82,539167,0.0-82.0,,,,,1471.0,,,animate (left arrow)&emsp;&emsp;&emsp;&emsp;inanimate (right arrow),semantic,3000.0,,/static/object_pics/drawing_veggie/lettuce.jpg,7000.0,inanimate,drawing,650.2590075939474,False,arrowleft,,MEM,MEM_0070,2022-12-08 22:16:42
,visual-trial,83,544264,0.0-83.0,,,,,898.0,,,photo (left arrow)&emsp;&emsp;&emsp;&emsp;drawing (right arrow),perceptual,3000.0,,/static/object_pics/drawing_insect/ladybug.jpg,7000.0,animate,drawing,1188.4953515782654,True,arrowright,,MEM,MEM_0070,2022-12-08 22:16:42
,visual-trial,84,549728,0.0-84.0,,,,,1010.0,,,photo (left arrow)&emsp;&emsp;&emsp;&emsp;drawing (right arrow),perceptual,3000.0,,/static/object_pics/drawing_electronic/handmixer.jpg,7000.0,inanimate,drawing,1440.981674390081,True,arrowright,,MEM,MEM_0070,2022-12-08 22:16:42
,visual-trial,85,555089,0.0-85.0,,,,,1682.0,,,animate (left arrow)&emsp;&emsp;&emsp;&emsp;inanimate (right arrow),semantic,3000.0,,/static/object_pics/picture_fruit/orange.jpg,7000.0,inanimate,photo,666.4708155310797,True,arrowright,,MEM,MEM_0070,2022-12-08 22:16:42
,visual-trial,86,560968,0.0-86.0,,,,,1520.0,,,photo (left arrow)&emsp;&emsp;&emsp;&emsp;drawing (right arrow),perceptual,3000.0,,/static/object_pics/drawing_insect/mosquito.jpg,7000.0,animate,drawing,1346.821070970358,True,arrowright,,MEM,MEM_0070,2022-12-08 22:16:42
,visual-trial,87,566314,0.0-87.0,,,,,1020.0,,,photo (left arrow)&emsp;&emsp;&emsp;&emsp;drawing (right arrow),perceptual,3000.0,,/static/object_pics/picture_fruit/watermelon.jpg,7000.0,inanimate,photo,1303.1235038313985,True,arrowleft,,MEM,MEM_0070,2022-12-08 22:16:42
,visual-trial,88,571210,0.0-88.0,,,,,1315.0,,,animate (left arrow)&emsp;&emsp;&emsp;&emsp;inanimate (right arrow),semantic,3000.0,,/static/object_pics/picture_clothe/slipper.jpg,7000.0,inanimate,photo,566.6922350691331,False,arrowleft,,MEM,MEM_0070,2022-12-08 22:16:42
,visual-trial,89,576897,0.0-89.0,,,,,1843.0,,,photo (left arrow)&emsp;&emsp;&emsp;&emsp;drawing (right arrow),perceptual,3000.0,,/static/object_pics/drawing_insect/grasshopper.jpg,7000.0,animate,drawing,831.8454662667359,True,arrowright,,MEM,MEM_0070,2022-12-08 22:16:42
,visual-trial,90,582050,0.0-90.0,,,,,820.0,,,photo (left arrow)&emsp;&emsp;&emsp;&emsp;drawing (right arrow),perceptual,3000.0,,/static/object_pics/picture_mammal/wolf.jpg,7000.0,animate,photo,1314.3649797920518,True,arrowleft,,MEM,MEM_0070,2022-12-08 22:16:42
,visual-trial,91,587149,0.0-91.0,,,,,919.0,,,animate (left arrow)&emsp;&emsp;&emsp;&emsp;inanimate (right arrow),semantic,3000.0,,/static/object_pics/picture_clothe/tie.jpg,7000.0,inanimate,photo,1165.9169415654565,True,arrowright,,MEM,MEM_0070,2022-12-08 22:16:42
,visual-trial,92,592612,0.0-92.0,,,,,1949.0,,,animate (left arrow)&emsp;&emsp;&emsp;&emsp;inanimate (right arrow),semantic,3000.0,,/static/object_pics/picture_clothe/bowtie.jpg,7000.0,inanimate,photo,503.3643817877238,True,arrowright,,MEM,MEM_0070,2022-12-08 22:16:42
,visual-trial,93,597693,0.0-93.0,,,,,999.0,,,animate (left arrow)&emsp;&emsp;&emsp;&emsp;inanimate (right arrow),semantic,3000.0,,/static/object_pics/picture_sea/seahorse.jpg,7000.0,animate,photo,1065.4907498421944,False,arrowright,,MEM,MEM_0070,2022-12-08 22:16:42
,visual-trial,94,603469,0.0-94.0,,,,,1782.0,,,animate (left arrow)&emsp;&emsp;&emsp;&emsp;inanimate (right arrow),semantic,3000.0,,/static/object_pics/drawing_electronic/toaster.jpg,7000.0,inanimate,drawing,977.11275994558,False,arrowleft,,MEM,MEM_0070,2022-12-08 22:16:42
,visual-trial,95,608690,0.0-95.0,,,,,924.0,,,photo (left arrow)&emsp;&emsp;&emsp;&emsp;drawing (right arrow),perceptual,3000.0,,/static/object_pics/picture_fruit/grapes.jpg,7000.0,inanimate,photo,1284.6690574668323,True,arrowleft,,MEM,MEM_0070,2022-12-08 22:16:42
,visual-trial,96,613273,0.0-96.0,,,,,1066.0,,,photo (left arrow)&emsp;&emsp;&emsp;&emsp;drawing (right arrow),perceptual,3000.0,,/static/object_pics/picture_mammal/bear.jpg,7000.0,animate,photo,505.8196427874124,True,arrowleft,,MEM,MEM_0070,2022-12-08 22:16:42
,visual-trial,97,619919,0.0-97.0,,,,,2840.0,,,animate (left arrow)&emsp;&emsp;&emsp;&emsp;inanimate (right arrow),semantic,3000.0,,/static/object_pics/picture_mammal/rhinoceros.jpg,7000.0,animate,photo,793.7019479816095,False,arrowright,,MEM,MEM_0070,2022-12-08 22:16:42
,visual-trial,98,625066,0.0-98.0,,,,,1267.0,,,photo (left arrow)&emsp;&emsp;&emsp;&emsp;drawing (right arrow),perceptual,3000.0,,/static/object_pics/picture_mammal/elephant.jpg,7000.0,animate,photo,869.4480754664615,True,arrowleft,,MEM,MEM_0070,2022-12-08 22:16:42
,visual-trial,99,629784,0.0-99.0,,,,,817.0,,,photo (left arrow)&emsp;&emsp;&emsp;&emsp;drawing (right arrow),perceptual,3000.0,,/static/object_pics/drawing_insect/mantis.jpg,7000.0,animate,drawing,889.4717051012649,True,arrowright,,MEM,MEM_0070,2022-12-08 22:16:42
,visual-trial,100,635160,0.0-100.0,,,,,1729.0,,,animate (left arrow)&emsp;&emsp;&emsp;&emsp;inanimate (right arrow),semantic,3000.0,,/static/object_pics/picture_fruit/papaya.jpg,7000.0,inanimate,photo,635.744824948222,True,arrowright,,MEM,MEM_0070,2022-12-08 22:16:42
,visual-trial,101,640074,0.0-101.0,,,,,1251.0,,,animate (left arrow)&emsp;&emsp;&emsp;&emsp;inanimate (right arrow),semantic,3000.0,,/static/object_pics/picture_clothe/hoodie.jpg,7000.0,inanimate,photo,647.0689050950729,True,arrowright,,MEM,MEM_0070,2022-12-08 22:16:42
,visual-trial,102,646229,0.0-102.0,,,,,1991.0,,,animate (left arrow)&emsp;&emsp;&emsp;&emsp;inanimate (right arrow),semantic,3000.0,,/static/object_pics/picture_sea/crab.jpg,7000.0,animate,photo,1154.1927606436675,False,arrowright,,MEM,MEM_0070,2022-12-08 22:16:42
,visual-trial,103,652050,0.0-103.0,,,,,1707.0,,,animate (left arrow)&emsp;&emsp;&emsp;&emsp;inanimate (right arrow),semantic,3000.0,,/static/object_pics/drawing_insect/ant.jpg,7000.0,animate,drawing,1101.2048848055185,True,arrowleft,,MEM,MEM_0070,2022-12-08 22:16:42
,visual-trial,104,657406,0.0-104.0,,,,,1504.0,,,animate (left arrow)&emsp;&emsp;&emsp;&emsp;inanimate (right arrow),semantic,3000.0,,/static/object_pics/drawing_insect/beetle.jpg,7000.0,animate,drawing,828.3124466505199,True,arrowleft,,MEM,MEM_0070,2022-12-08 22:16:42
,visual-trial,105,662713,0.0-105.0,,,,,939.0,,,photo (left arrow)&emsp;&emsp;&emsp;&emsp;drawing (right arrow),perceptual,3000.0,,/static/object_pics/drawing_veggie/onions.jpg,7000.0,inanimate,drawing,1350.0164842663492,True,arrowright,,MEM,MEM_0070,2022-12-08 22:16:42
,visual-trial,106,667093,0.0-106.0,,,,,862.0,,,photo (left arrow)&emsp;&emsp;&emsp;&emsp;drawing (right arrow),perceptual,3000.0,,/static/object_pics/picture_clothe/hat.jpg,7000.0,inanimate,photo,507.0924220025226,True,arrowleft,,MEM,MEM_0070,2022-12-08 22:16:42
,visual-trial,107,672157,0.0-107.0,,,,,951.0,,,photo (left arrow)&emsp;&emsp;&emsp;&emsp;drawing (right arrow),perceptual,3000.0,,/static/object_pics/drawing_insect/butterfly.jpg,7000.0,animate,drawing,1098.8720958223694,True,arrowright,,MEM,MEM_0070,2022-12-08 22:16:42
,html-keyboard-response,108,682371,0.0-108.0,,,,,10212.0,"
        <p>In that last set of trials, you were correct 78% of the time.</p>
        <p>Feel free to take a brief break. In the next set of trials, you will continue with the same task.
        The instructions are displayed below, in case you need a refresher.
        Press the space bar when you are ready to continue.</p>
        <p>In this task, you will see a series of objects. On some trials, your job is to determine
        whether the object shown is a color photograph or a line drawing. On other trials, your job
        is to determine whether the object represented is animate or inanimate.

        <br><br>
        You will know which response to make depending on the initial display, which will say
        ""animate / inanimate"" or ""photo / drawing"".
        <br>
        You will be able to use the left arrow key to report animate/photo and the right arrow key to report inanimate/drawing.
        <br>
        Please respond as quickly as possible, and use your dominant hand to make your responses.
        <br><br>
        You will be able to use the left arrow key to report animate/photo and the right arrow key to report inanimate/drawing.
        <br><br>
        <img src=""/static/instructions_pics/visual_pic.png"" height=""300px"">
        <br>
        In the example in the top row, the correct response is animate (left arrow key). In the example in the bottom row, the correct response is photo (left arrow key).
        <br>
        <br>When you are ready to begin, press the space bar.</p>", ,,,,,,,,,,,,,MEM,MEM_0070,2022-12-08 22:16:42
,visual-trial,109,687443,0.0-109.0,,,,,900.0,,,photo (left arrow)&emsp;&emsp;&emsp;&emsp;drawing (right arrow),perceptual,3000.0,,/static/object_pics/picture_fruit/coconut.jpg,7000.0,inanimate,photo,1152.1897606631167,True,arrowleft,,MEM,MEM_0070,2022-12-08 22:16:42
,visual-trial,110,692373,0.0-110.0,,,,,934.0,,,photo (left arrow)&emsp;&emsp;&emsp;&emsp;drawing (right arrow),perceptual,3000.0,,/static/object_pics/picture_clothe/sock02.jpg,7000.0,inanimate,photo,972.5609157532738,True,arrowleft,,MEM,MEM_0070,2022-12-08 22:16:42
,visual-trial,111,697224,0.0-111.0,,,,,905.0,,,animate (left arrow)&emsp;&emsp;&emsp;&emsp;inanimate (right arrow),semantic,3000.0,,/static/object_pics/drawing_electronic/keyboard.jpg,7000.0,inanimate,drawing,935.7238642548859,True,arrowright,,MEM,MEM_0070,2022-12-08 22:16:42
,visual-trial,112,703202,0.0-112.0,,,,,1684.0,,,photo (left arrow)&emsp;&emsp;&emsp;&emsp;drawing (right arrow),perceptual,3000.0,,/static/object_pics/drawing_veggie/pumpkin.jpg,7000.0,inanimate,drawing,1282.451018336189,True,arrowright,,MEM,MEM_0070,2022-12-08 22:16:42
,visual-trial,113,708684,0.0-113.0,,,,,1477.0,,,photo (left arrow)&emsp;&emsp;&emsp;&emsp;drawing (right arrow),perceptual,3000.0,,/static/object_pics/drawing_veggie/aubergine.jpg,7000.0,inanimate,drawing,991.1167446929079,True,arrowright,,MEM,MEM_0070,2022-12-08 22:16:42
,visual-trial,114,714224,0.0-114.0,,,,,1440.0,,,photo (left arrow)&emsp;&emsp;&emsp;&emsp;drawing (right arrow),perceptual,3000.0,,/static/object_pics/picture_sea/jellyfish.jpg,7000.0,animate,photo,1076.640504604332,True,arrowleft,,MEM,MEM_0070,2022-12-08 22:16:42
,visual-trial,115,718839,0.0-115.0,,,,,1072.0,,,photo (left arrow)&emsp;&emsp;&emsp;&emsp;drawing (right arrow),perceptual,3000.0,,/static/object_pics/picture_mammal/squirrel.jpg,7000.0,animate,photo,531.6287159216913,True,arrowleft,,MEM,MEM_0070,2022-12-08 22:16:42
,visual-trial,116,724719,0.0-116.0,,,,,2105.0,,,animate (left arrow)&emsp;&emsp;&emsp;&emsp;inanimate (right arrow),semantic,3000.0,,/static/object_pics/picture_sea/dolphin.jpg,7000.0,animate,photo,752.4820394546903,True,arrowleft,,MEM,MEM_0070,2022-12-08 22:16:42
,visual-trial,117,729647,0.0-117.0,,,,,1089.0,,,photo (left arrow)&emsp;&emsp;&emsp;&emsp;drawing (right arrow),perceptual,3000.0,,/static/object_pics/picture_fruit/melon.jpg,7000.0,inanimate,photo,828.705085725858,True,arrowleft,,MEM,MEM_0070,2022-12-08 22:16:42
,visual-trial,118,734964,0.0-118.0,,,,,1534.0,,,animate (left arrow)&emsp;&emsp;&emsp;&emsp;inanimate (right arrow),semantic,3000.0,,/static/object_pics/picture_sea/starfish02.jpg,7000.0,animate,photo,759.8654432261856,False,arrowright,,MEM,MEM_0070,2022-12-08 22:16:42
,visual-trial,119,740730,0.0-119.0,,,,,1940.0,,,animate (left arrow)&emsp;&emsp;&emsp;&emsp;inanimate (right arrow),semantic,3000.0,,/static/object_pics/drawing_insect/spider.jpg,7000.0,animate,drawing,814.0995832078584,True,arrowleft,,MEM,MEM_0070,2022-12-08 22:16:42
,visual-trial,120,747932,0.0-120.0,,,,,2957.0,,,animate (left arrow)&emsp;&emsp;&emsp;&emsp;inanimate (right arrow),semantic,3000.0,,/static/object_pics/picture_mammal/bull.jpg,7000.0,animate,photo,1226.4424167050697,True,arrowleft,,MEM,MEM_0070,2022-12-08 22:16:42
,visual-trial,121,753920,0.0-121.0,,,,,2018.0,,,photo (left arrow)&emsp;&emsp;&emsp;&emsp;drawing (right arrow),perceptual,3000.0,,/static/object_pics/drawing_electronic/camera.jpg,7000.0,inanimate,drawing,953.2993573737656,True,arrowright,,MEM,MEM_0070,2022-12-08 22:16:42
,visual-trial,122,760162,0.0-122.0,,,,,2348.0,,,animate (left arrow)&emsp;&emsp;&emsp;&emsp;inanimate (right arrow),semantic,3000.0,,/static/object_pics/drawing_bird/vulture.jpg,7000.0,animate,drawing,883.0146416986922,False,arrowright,,MEM,MEM_0070,2022-12-08 22:16:42
,visual-trial,123,765074,0.0-123.0,,,,,1051.0,,,photo (left arrow)&emsp;&emsp;&emsp;&emsp;drawing (right arrow),perceptual,3000.0,,/static/object_pics/picture_clothe/belt.jpg,7000.0,inanimate,photo,846.3302025034087,True,arrowleft,,MEM,MEM_0070,2022-12-08 22:16:42
,visual-trial,124,769768,0.0-124.0,,,,,962.0,,,photo (left arrow)&emsp;&emsp;&emsp;&emsp;drawing (right arrow),perceptual,3000.0,,/static/object_pics/drawing_bird/eagle.jpg,7000.0,animate,drawing,721.3695058882656,True,arrowright,,MEM,MEM_0070,2022-12-08 22:16:42
,visual-trial,125,774709,0.0-125.0,,,,,807.0,,,animate (left arrow)&emsp;&emsp;&emsp;&emsp;inanimate (right arrow),semantic,3000.0,,/static/object_pics/drawing_bird/peacock.jpg,7000.0,animate,drawing,1117.8896418651293,True,arrowleft,,MEM,MEM_0070,2022-12-08 22:16:42
,visual-trial,126,779803,0.0-126.0,,,,,1052.0,,,photo (left arrow)&emsp;&emsp;&emsp;&emsp;drawing (right arrow),perceptual,3000.0,,/static/object_pics/drawing_electronic/microphone.jpg,7000.0,inanimate,drawing,1022.8468344370672,True,arrowright,,MEM,MEM_0070,2022-12-08 22:16:42
,visual-trial,127,784500,0.0-127.0,,,,,862.0,,,photo (left arrow)&emsp;&emsp;&emsp;&emsp;drawing (right arrow),perceptual,3000.0,,/static/object_pics/drawing_insect/scorpion.jpg,7000.0,animate,drawing,820.2441083499318,True,arrowright,,MEM,MEM_0070,2022-12-08 22:16:42
,visual-trial,128,791733,0.0-128.0,,,,,3656.0,,,animate (left arrow)&emsp;&emsp;&emsp;&emsp;inanimate (right arrow),semantic,3000.0,,/static/object_pics/picture_sea/swordfish.jpg,7000.0,animate,photo,566.3199149293188,False,arrowright,,MEM,MEM_0070,2022-12-08 22:16:42
,visual-trial,129,796270,0.0-129.0,,,,,967.0,,,animate (left arrow)&emsp;&emsp;&emsp;&emsp;inanimate (right arrow),semantic,3000.0,,/static/object_pics/drawing_veggie/corn.jpg,7000.0,inanimate,drawing,553.7517428226622,False,arrowleft,,MEM,MEM_0070,2022-12-08 22:16:42
,visual-trial,130,801631,0.0-130.0,,,,,985.0,,,animate (left arrow)&emsp;&emsp;&emsp;&emsp;inanimate (right arrow),semantic,3000.0,,/static/object_pics/drawing_bird/parrot.jpg,7000.0,animate,drawing,1359.171840730326,True,arrowleft,,MEM,MEM_0070,2022-12-08 22:16:42
,visual-trial,131,807273,0.0-131.0,,,,,1210.0,,,animate (left arrow)&emsp;&emsp;&emsp;&emsp;inanimate (right arrow),semantic,3000.0,,/static/object_pics/picture_clothe/glasses.jpg,7000.0,inanimate,photo,1413.8788281772909,True,arrowright,,MEM,MEM_0070,2022-12-08 22:16:42
,visual-trial,132,811677,0.0-132.0,,,,,847.0,,,animate (left arrow)&emsp;&emsp;&emsp;&emsp;inanimate (right arrow),semantic,3000.0,,/static/object_pics/drawing_electronic/printer.jpg,7000.0,inanimate,drawing,545.0215607557476,False,arrowleft,,MEM,MEM_0070,2022-12-08 22:16:42
,visual-trial,133,816242,0.0-133.0,,,,,932.0,,,animate (left arrow)&emsp;&emsp;&emsp;&emsp;inanimate (right arrow),semantic,3000.0,,/static/object_pics/drawing_electronic/computer mouse.jpg,7000.0,inanimate,drawing,615.9442662529584,False,arrowleft,,MEM,MEM_0070,2022-12-08 22:16:42
,visual-trial,134,822560,0.0-134.0,,,,,2034.0,,,animate (left arrow)&emsp;&emsp;&emsp;&emsp;inanimate (right arrow),semantic,3000.0,,/static/object_pics/picture_fruit/pear.jpg,7000.0,inanimate,photo,1267.49727983171,True,arrowright,,MEM,MEM_0070,2022-12-08 22:16:42
,visual-trial,135,827457,0.0-135.0,,,,,1010.0,,,animate (left arrow)&emsp;&emsp;&emsp;&emsp;inanimate (right arrow),semantic,3000.0,,/static/object_pics/drawing_electronic/phone.jpg,7000.0,inanimate,drawing,873.7003237448102,False,arrowleft,,MEM,MEM_0070,2022-12-08 22:16:42
,visual-trial,136,832567,0.0-136.0,,,,,912.0,,,photo (left arrow)&emsp;&emsp;&emsp;&emsp;drawing (right arrow),perceptual,3000.0,,/static/object_pics/drawing_veggie/potato.jpg,7000.0,inanimate,drawing,1185.8805661430779,True,arrowright,,MEM,MEM_0070,2022-12-08 22:16:42
,visual-trial,137,837530,0.0-137.0,,,,,1075.0,,,animate (left arrow)&emsp;&emsp;&emsp;&emsp;inanimate (right arrow),semantic,3000.0,,/static/object_pics/drawing_insect/worm.jpg,7000.0,animate,drawing,864.1248643180456,True,arrowleft,,MEM,MEM_0070,2022-12-08 22:16:42
,visual-trial,138,842469,0.0-138.0,,,,,1127.0,,,animate (left arrow)&emsp;&emsp;&emsp;&emsp;inanimate (right arrow),semantic,3000.0,,/static/object_pics/picture_fruit/lemon.jpg,7000.0,inanimate,photo,798.6574538708264,True,arrowright,,MEM,MEM_0070,2022-12-08 22:16:42
,visual-trial,139,848510,0.0-139.0,,,,,2320.0,,,animate (left arrow)&emsp;&emsp;&emsp;&emsp;inanimate (right arrow),semantic,3000.0,,/static/object_pics/picture_sea/killer whale.jpg,7000.0,animate,photo,709.2647723947116,False,arrowright,,MEM,MEM_0070,2022-12-08 22:16:42
,visual-trial,140,853349,0.0-140.0,,,,,1222.0,,,photo (left arrow)&emsp;&emsp;&emsp;&emsp;drawing (right arrow),perceptual,3000.0,,/static/object_pics/picture_sea/eel.jpg,7000.0,animate,photo,598.4842035992338,True,arrowleft,,MEM,MEM_0070,2022-12-08 22:16:42
,html-keyboard-response,141,863723,0.0-141.0,,,,,10374.0,"
      <p>Thank you for your participation!</p>
      The goal of this study is to replicate previous findings that the timing of responses in memory-dependent tasks
      is rhythmic in nature (compared to the timing of responses in memory-independent tasks).
      You performed the memory-independent tasks in this study.
      <br>
      Your participation will allow us to better understand how memory works.
      Please do not share this information with other potential participants.
      <br>
      Press the space bar to continue.</p>", ,,,,,,,,,,,,,MEM,MEM_0070,2022-12-08 22:16:42
