success,trial_type,trial_index,time_elapsed,internal_node_id,timeout,failed_images,failed_audio,failed_video,rt,stimulus,response,key,instruction,instruction_class,instruction_duration,prompt,object,object_duration,animacy,style,jitter,accurate,question_order,exp,subjectId,date
True,fullscreen,0,3990,0.0-0.0,,,,,,,,,,,,,,,,,,,,MEM,MEM_0061,2022-12-08 22:01:46
True,preload,1,7824,0.0-1.0,False,[],[],[],,,,,,,,,,,,,,,,MEM,MEM_0061,2022-12-08 22:01:46
,html-keyboard-response,2,27067,0.0-2.0,,,,,19233.0,"
      <p>In this task, you will see a series of objects. On some trials, your job is to determine
      whether the object shown is a color photograph or a line drawing. On other trials, your job
      is to determine whether the object represented is animate or inanimate.

      <br><br>
      You will know which response to make depending on the initial display, which will say
      ""animate / inanimate"" or ""photo / drawing"".
      <br>
      <br>
      You will be able to use the left arrow key to report animate/photo and the right arrow key to report inanimate/drawing.
      <br>
      Please respond as quickly as possible, and use your dominant hand to make your responses.
      <br><br>
      <img src=""/static/instructions_pics/visual_pic.png"" height=""300px"">
      <br>
      In the example in the top row, the correct response is animate (left arrow key). In the example in the bottom row, the correct response is photo (left arrow key).
      <br>
      <br>You will first do some practice trials. When you are ready to begin, press the space bar.</p>", ,,,,,,,,,,,,,MEM,MEM_0061,2022-12-08 22:01:46
,visual-trial,3,32841,0.0-3.0,,,,,1704.0,,,arrowleft,animate (left arrow)&emsp;&emsp;&emsp;&emsp;inanimate (right arrow),semantic,3000.0,,/static/for_instructions/object_pics/drawing_bird/heron.jpg,7000.0,animate,drawing,1048.9639906169189,True,,MEM,MEM_0061,2022-12-08 22:01:46
,visual-trial,4,37976,0.0-4.0,,,,,1335.0,,,arrowleft,photo (left arrow)&emsp;&emsp;&emsp;&emsp;drawing (right arrow),perceptual,3000.0,,/static/for_instructions/object_pics/picture_electronic/flashlight.jpg,7000.0,inanimate,photo,783.7092534696759,True,,MEM,MEM_0061,2022-12-08 22:01:46
,visual-trial,5,45343,0.0-5.0,,,,,3479.0,,,arrowleft,animate (left arrow)&emsp;&emsp;&emsp;&emsp;inanimate (right arrow),semantic,3000.0,,/static/for_instructions/object_pics/drawing_clothe/hockey helmet.jpg,7000.0,inanimate,drawing,875.1529027425371,False,,MEM,MEM_0061,2022-12-08 22:01:46
,visual-trial,6,50389,0.0-6.0,,,,,1188.0,,,arrowleft,photo (left arrow)&emsp;&emsp;&emsp;&emsp;drawing (right arrow),perceptual,3000.0,,/static/for_instructions/object_pics/picture_veggie/avocado.jpg,7000.0,inanimate,photo,843.3197137364243,True,,MEM,MEM_0061,2022-12-08 22:01:46
,survey-multi-choice,7,58851,0.0-7.0-0.0,,,,,8459.0,,"{'Style': 'True', 'Animacy': 'True'}",,,,,,,,,,,,"[0, 1]",MEM,MEM_0061,2022-12-08 22:01:46
,html-keyboard-response,8,61447,0.0-8.0,,,,,2593.0,"
      <p>Great job! Now you'll continue onto doing the main task.
      You will have the opportunity to take brief breaks at various points.
      Good luck!<br>Press the space bar to continue.</p>", ,,,,,,,,,,,,,MEM,MEM_0061,2022-12-08 22:01:46
True,fullscreen,9,66575,0.0-9.0,,,,,,,,,,,,,,,,,,,,MEM,MEM_0061,2022-12-08 22:01:46
,visual-trial,10,73794,0.0-10.0,,,,,2922.0,,,arrowright,photo (left arrow)&emsp;&emsp;&emsp;&emsp;drawing (right arrow),perceptual,3000.0,,/static/object_pics/drawing_veggie/artichoke.jpg,7000.0,inanimate,drawing,1284.2924591071896,True,,MEM,MEM_0061,2022-12-08 22:01:46
,visual-trial,11,79302,0.0-11.0,,,,,1494.0,,,arrowleft,animate (left arrow)&emsp;&emsp;&emsp;&emsp;inanimate (right arrow),semantic,3000.0,,/static/object_pics/picture_sea/shark.jpg,7000.0,animate,photo,995.3939774836966,True,,MEM,MEM_0061,2022-12-08 22:01:46
,visual-trial,12,85020,0.0-12.0,,,,,1787.0,,,arrowright,animate (left arrow)&emsp;&emsp;&emsp;&emsp;inanimate (right arrow),semantic,3000.0,,/static/object_pics/picture_clothe/belt.jpg,7000.0,inanimate,photo,914.7553277298113,True,,MEM,MEM_0061,2022-12-08 22:01:46
,visual-trial,13,89855,0.0-13.0,,,,,1005.0,,,arrowright,photo (left arrow)&emsp;&emsp;&emsp;&emsp;drawing (right arrow),perceptual,3000.0,,/static/object_pics/drawing_fruit/pear.jpg,7000.0,inanimate,drawing,811.6623587963308,True,,MEM,MEM_0061,2022-12-08 22:01:46
,visual-trial,14,94696,0.0-14.0,,,,,712.0,,,arrowleft,animate (left arrow)&emsp;&emsp;&emsp;&emsp;inanimate (right arrow),semantic,3000.0,,/static/object_pics/picture_bird/eagle.jpg,7000.0,animate,photo,1118.1659380171182,True,,MEM,MEM_0061,2022-12-08 22:01:46
,visual-trial,15,100520,0.0-15.0,,,,,1366.0,,,arrowleft,animate (left arrow)&emsp;&emsp;&emsp;&emsp;inanimate (right arrow),semantic,3000.0,,/static/object_pics/drawing_insect/spider.jpg,7000.0,animate,drawing,1435.562281884695,True,,MEM,MEM_0061,2022-12-08 22:01:46
,visual-trial,16,105375,0.0-16.0,,,,,991.0,,,arrowright,animate (left arrow)&emsp;&emsp;&emsp;&emsp;inanimate (right arrow),semantic,3000.0,,/static/object_pics/drawing_veggie/corn.jpg,7000.0,inanimate,drawing,843.8443140022081,True,,MEM,MEM_0061,2022-12-08 22:01:46
,visual-trial,17,110764,0.0-17.0,,,,,1356.0,,,arrowleft,photo (left arrow)&emsp;&emsp;&emsp;&emsp;drawing (right arrow),perceptual,3000.0,,/static/object_pics/picture_clothe/scarf.jpg,7000.0,inanimate,photo,1022.970699890945,True,,MEM,MEM_0061,2022-12-08 22:01:46
,visual-trial,18,115505,0.0-18.0,,,,,649.0,,,arrowright,photo (left arrow)&emsp;&emsp;&emsp;&emsp;drawing (right arrow),perceptual,3000.0,,/static/object_pics/drawing_insect/bumble bee.jpg,7000.0,animate,drawing,1070.7230940420263,True,,MEM,MEM_0061,2022-12-08 22:01:46
,visual-trial,19,121620,0.0-19.0,,,,,1900.0,,,arrowright,animate (left arrow)&emsp;&emsp;&emsp;&emsp;inanimate (right arrow),semantic,3000.0,,/static/object_pics/drawing_veggie/onions.jpg,7000.0,inanimate,drawing,1202.9152680366508,True,,MEM,MEM_0061,2022-12-08 22:01:46
,visual-trial,20,126369,0.0-20.0,,,,,903.0,,,arrowleft,animate (left arrow)&emsp;&emsp;&emsp;&emsp;inanimate (right arrow),semantic,3000.0,,/static/object_pics/drawing_mammal/elephant.jpg,7000.0,animate,drawing,827.4646337304283,True,,MEM,MEM_0061,2022-12-08 22:01:46
,visual-trial,21,130489,0.0-21.0,,,,,608.0,,,arrowleft,animate (left arrow)&emsp;&emsp;&emsp;&emsp;inanimate (right arrow),semantic,3000.0,,/static/object_pics/drawing_mammal/rabbit.jpg,7000.0,animate,drawing,501.6212315762687,True,,MEM,MEM_0061,2022-12-08 22:01:46
,visual-trial,22,135631,0.0-22.0,,,,,1223.0,,,arrowright,animate (left arrow)&emsp;&emsp;&emsp;&emsp;inanimate (right arrow),semantic,3000.0,,/static/object_pics/drawing_veggie/potato.jpg,7000.0,inanimate,drawing,905.4470306542623,True,,MEM,MEM_0061,2022-12-08 22:01:46
,visual-trial,23,140178,0.0-23.0,,,,,986.0,,,arrowleft,photo (left arrow)&emsp;&emsp;&emsp;&emsp;drawing (right arrow),perceptual,3000.0,,/static/object_pics/picture_electronic/phone.jpg,7000.0,inanimate,photo,544.7674304387868,True,,MEM,MEM_0061,2022-12-08 22:01:46
,visual-trial,24,145279,0.0-24.0,,,,,982.0,,,arrowright,animate (left arrow)&emsp;&emsp;&emsp;&emsp;inanimate (right arrow),semantic,3000.0,,/static/object_pics/picture_electronic/satellite dish.jpg,7000.0,inanimate,photo,1102.4658635824735,True,,MEM,MEM_0061,2022-12-08 22:01:46
,visual-trial,25,149820,0.0-25.0,,,,,1003.0,,,arrowright,photo (left arrow)&emsp;&emsp;&emsp;&emsp;drawing (right arrow),perceptual,3000.0,,/static/object_pics/drawing_mammal/lion.jpg,7000.0,animate,drawing,522.069523534374,True,,MEM,MEM_0061,2022-12-08 22:01:46
,visual-trial,26,154490,0.0-26.0,,,,,1026.0,,,arrowright,photo (left arrow)&emsp;&emsp;&emsp;&emsp;drawing (right arrow),perceptual,3000.0,,/static/object_pics/drawing_insect/worm.jpg,7000.0,animate,drawing,633.2537818267272,True,,MEM,MEM_0061,2022-12-08 22:01:46
,visual-trial,27,159864,0.0-27.0,,,,,1087.0,,,arrowleft,animate (left arrow)&emsp;&emsp;&emsp;&emsp;inanimate (right arrow),semantic,3000.0,,/static/object_pics/drawing_insect/snail.jpg,7000.0,animate,drawing,1271.439657909811,True,,MEM,MEM_0061,2022-12-08 22:01:46
,visual-trial,28,164671,0.0-28.0,,,,,671.0,,,arrowleft,photo (left arrow)&emsp;&emsp;&emsp;&emsp;drawing (right arrow),perceptual,3000.0,,/static/object_pics/picture_sea/octopus.jpg,7000.0,animate,photo,1121.129688057094,True,,MEM,MEM_0061,2022-12-08 22:01:46
,visual-trial,29,169506,0.0-29.0,,,,,809.0,,,arrowleft,photo (left arrow)&emsp;&emsp;&emsp;&emsp;drawing (right arrow),perceptual,3000.0,,/static/object_pics/picture_electronic/printer.jpg,7000.0,inanimate,photo,1008.4727817814182,True,,MEM,MEM_0061,2022-12-08 22:01:46
,visual-trial,30,173810,0.0-30.0,,,,,698.0,,,arrowright,animate (left arrow)&emsp;&emsp;&emsp;&emsp;inanimate (right arrow),semantic,3000.0,,/static/object_pics/picture_electronic/toaster.jpg,7000.0,inanimate,photo,595.9160354193924,True,,MEM,MEM_0061,2022-12-08 22:01:46
,visual-trial,31,178184,0.0-31.0,,,,,567.0,,,arrowright,photo (left arrow)&emsp;&emsp;&emsp;&emsp;drawing (right arrow),perceptual,3000.0,,/static/object_pics/drawing_fruit/apple.jpg,7000.0,inanimate,drawing,795.0362940928477,True,,MEM,MEM_0061,2022-12-08 22:01:46
,visual-trial,32,183244,0.0-32.0,,,,,1324.0,,,arrowright,photo (left arrow)&emsp;&emsp;&emsp;&emsp;drawing (right arrow),perceptual,3000.0,,/static/object_pics/drawing_mammal/bull.jpg,7000.0,animate,drawing,722.1663500336526,True,,MEM,MEM_0061,2022-12-08 22:01:46
,visual-trial,33,188193,0.0-33.0,,,,,969.0,,,arrowleft,animate (left arrow)&emsp;&emsp;&emsp;&emsp;inanimate (right arrow),semantic,3000.0,,/static/object_pics/picture_bird/owl.jpg,7000.0,animate,photo,964.6176126144385,True,,MEM,MEM_0061,2022-12-08 22:01:46
,visual-trial,34,193051,0.0-34.0,,,,,746.0,,,arrowleft,animate (left arrow)&emsp;&emsp;&emsp;&emsp;inanimate (right arrow),semantic,3000.0,,/static/object_pics/picture_sea/piranha.jpg,7000.0,animate,photo,1097.6977158213292,True,,MEM,MEM_0061,2022-12-08 22:01:46
,visual-trial,35,197900,0.0-35.0,,,,,653.0,,,arrowleft,photo (left arrow)&emsp;&emsp;&emsp;&emsp;drawing (right arrow),perceptual,3000.0,,/static/object_pics/picture_bird/parrot.jpg,7000.0,animate,photo,1178.0424427267844,True,,MEM,MEM_0061,2022-12-08 22:01:46
,visual-trial,36,203315,0.0-36.0,,,,,1339.0,,,arrowright,animate (left arrow)&emsp;&emsp;&emsp;&emsp;inanimate (right arrow),semantic,3000.0,,/static/object_pics/picture_clothe/jeans.jpg,7000.0,inanimate,photo,1051.2092977488708,True,,MEM,MEM_0061,2022-12-08 22:01:46
,visual-trial,37,207747,0.0-37.0,,,,,620.0,,,arrowleft,animate (left arrow)&emsp;&emsp;&emsp;&emsp;inanimate (right arrow),semantic,3000.0,,/static/object_pics/picture_sea/starfish02.jpg,7000.0,animate,photo,802.6584898819584,True,,MEM,MEM_0061,2022-12-08 22:01:46
,visual-trial,38,213115,0.0-38.0,,,,,1027.0,,,arrowleft,photo (left arrow)&emsp;&emsp;&emsp;&emsp;drawing (right arrow),perceptual,3000.0,,/static/object_pics/picture_clothe/shirt.jpg,7000.0,inanimate,photo,1327.042708112413,True,,MEM,MEM_0061,2022-12-08 22:01:46
,visual-trial,39,217666,0.0-39.0,,,,,866.0,,,arrowright,photo (left arrow)&emsp;&emsp;&emsp;&emsp;drawing (right arrow),perceptual,3000.0,,/static/object_pics/drawing_fruit/papaya.jpg,7000.0,inanimate,drawing,660.9993837575612,True,,MEM,MEM_0061,2022-12-08 22:01:46
,visual-trial,40,223090,0.0-40.0,,,,,929.0,,,arrowright,animate (left arrow)&emsp;&emsp;&emsp;&emsp;inanimate (right arrow),semantic,3000.0,,/static/object_pics/picture_clothe/gloves.jpg,7000.0,inanimate,photo,1482.9084878179656,True,,MEM,MEM_0061,2022-12-08 22:01:46
,visual-trial,41,227397,0.0-41.0,,,,,702.0,,,arrowright,animate (left arrow)&emsp;&emsp;&emsp;&emsp;inanimate (right arrow),semantic,3000.0,,/static/object_pics/picture_electronic/remote control.jpg,7000.0,inanimate,photo,595.8844172476856,True,,MEM,MEM_0061,2022-12-08 22:01:46
,html-keyboard-response,42,415316,0.0-42.0,,,,,187915.0,"
        <p>In that last set of trials, you were correct 100% of the time.</p>
        <p>Feel free to take a brief break. In the next set of trials, you will continue with the same task.
        The instructions are displayed below, in case you need a refresher.
        Press the space bar when you are ready to continue.</p>
        <p>In this task, you will see a series of objects. On some trials, your job is to determine
        whether the object shown is a color photograph or a line drawing. On other trials, your job
        is to determine whether the object represented is animate or inanimate.

        <br><br>
        You will know which response to make depending on the initial display, which will say
        ""animate / inanimate"" or ""photo / drawing"".
        <br>
        You will be able to use the left arrow key to report animate/photo and the right arrow key to report inanimate/drawing.
        <br>
        Please respond as quickly as possible, and use your dominant hand to make your responses.
        <br><br>
        You will be able to use the left arrow key to report animate/photo and the right arrow key to report inanimate/drawing.
        <br><br>
        <img src=""/static/instructions_pics/visual_pic.png"" height=""300px"">
        <br>
        In the example in the top row, the correct response is animate (left arrow key). In the example in the bottom row, the correct response is photo (left arrow key).
        <br>
        <br>When you are ready to begin, press the space bar.</p>", ,,,,,,,,,,,,,MEM,MEM_0061,2022-12-08 22:01:46
,visual-trial,43,420033,0.0-43.0,,,,,753.0,,,arrowleft,photo (left arrow)&emsp;&emsp;&emsp;&emsp;drawing (right arrow),perceptual,3000.0,,/static/object_pics/picture_sea/seahorse.jpg,7000.0,animate,photo,948.6261093067953,True,,MEM,MEM_0061,2022-12-08 22:01:46
,visual-trial,44,424941,0.0-44.0,,,,,1212.0,,,arrowright,photo (left arrow)&emsp;&emsp;&emsp;&emsp;drawing (right arrow),perceptual,3000.0,,/static/object_pics/drawing_veggie/pumpkin.jpg,7000.0,inanimate,drawing,682.0187888992352,True,,MEM,MEM_0061,2022-12-08 22:01:46
,visual-trial,45,429257,0.0-45.0,,,,,656.0,,,arrowleft,photo (left arrow)&emsp;&emsp;&emsp;&emsp;drawing (right arrow),perceptual,3000.0,,/static/object_pics/picture_sea/killer whale.jpg,7000.0,animate,photo,643.1979504001322,True,,MEM,MEM_0061,2022-12-08 22:01:46
,visual-trial,46,433601,0.0-46.0,,,,,560.0,,,arrowright,photo (left arrow)&emsp;&emsp;&emsp;&emsp;drawing (right arrow),perceptual,3000.0,,/static/object_pics/drawing_mammal/gorilla.jpg,7000.0,animate,drawing,768.2265409278979,True,,MEM,MEM_0061,2022-12-08 22:01:46
,visual-trial,47,438240,0.0-47.0,,,,,743.0,,,arrowleft,animate (left arrow)&emsp;&emsp;&emsp;&emsp;inanimate (right arrow),semantic,3000.0,,/static/object_pics/picture_bird/vulture.jpg,7000.0,animate,photo,880.8438784838904,True,,MEM,MEM_0061,2022-12-08 22:01:46
,visual-trial,48,443342,0.0-48.0,,,,,909.0,,,arrowleft,photo (left arrow)&emsp;&emsp;&emsp;&emsp;drawing (right arrow),perceptual,3000.0,,/static/object_pics/picture_electronic/handmixer.jpg,7000.0,inanimate,photo,1177.5067488879747,True,,MEM,MEM_0061,2022-12-08 22:01:46
,visual-trial,49,447794,0.0-49.0,,,,,538.0,,,arrowleft,photo (left arrow)&emsp;&emsp;&emsp;&emsp;drawing (right arrow),perceptual,3000.0,,/static/object_pics/picture_bird/turkey.jpg,7000.0,animate,photo,902.2223553465979,True,,MEM,MEM_0061,2022-12-08 22:01:46
,visual-trial,50,452055,0.0-50.0,,,,,694.0,,,arrowright,photo (left arrow)&emsp;&emsp;&emsp;&emsp;drawing (right arrow),perceptual,3000.0,,/static/object_pics/drawing_mammal/bear.jpg,7000.0,animate,drawing,554.0522068607037,True,,MEM,MEM_0061,2022-12-08 22:01:46
,visual-trial,51,456730,0.0-51.0,,,,,633.0,,,arrowleft,photo (left arrow)&emsp;&emsp;&emsp;&emsp;drawing (right arrow),perceptual,3000.0,,/static/object_pics/picture_bird/toucan.jpg,7000.0,animate,photo,1031.9610699097732,True,,MEM,MEM_0061,2022-12-08 22:01:46
,visual-trial,52,462225,0.0-52.0,,,,,1472.0,,,arrowright,animate (left arrow)&emsp;&emsp;&emsp;&emsp;inanimate (right arrow),semantic,3000.0,,/static/object_pics/drawing_fruit/grapes.jpg,7000.0,inanimate,drawing,1008.0440081504391,True,,MEM,MEM_0061,2022-12-08 22:01:46
,visual-trial,53,467340,0.0-53.0,,,,,1068.0,,,arrowleft,photo (left arrow)&emsp;&emsp;&emsp;&emsp;drawing (right arrow),perceptual,3000.0,,/static/object_pics/picture_clothe/sock02.jpg,7000.0,inanimate,photo,1033.7139975759724,True,,MEM,MEM_0061,2022-12-08 22:01:46
,visual-trial,54,472390,0.0-54.0,,,,,740.0,,,arrowright,photo (left arrow)&emsp;&emsp;&emsp;&emsp;drawing (right arrow),perceptual,3000.0,,/static/object_pics/drawing_veggie/carrots.jpg,7000.0,inanimate,drawing,1293.6327166495544,True,,MEM,MEM_0061,2022-12-08 22:01:46
,visual-trial,55,477732,0.0-55.0,,,,,868.0,,,arrowright,animate (left arrow)&emsp;&emsp;&emsp;&emsp;inanimate (right arrow),semantic,3000.0,,/static/object_pics/picture_electronic/laptop.jpg,7000.0,inanimate,photo,1464.0149722171577,True,,MEM,MEM_0061,2022-12-08 22:01:46
,visual-trial,56,482495,0.0-56.0,,,,,688.0,,,arrowleft,photo (left arrow)&emsp;&emsp;&emsp;&emsp;drawing (right arrow),perceptual,3000.0,,/static/object_pics/picture_sea/eel.jpg,7000.0,animate,photo,1058.48559136731,True,,MEM,MEM_0061,2022-12-08 22:01:46
,visual-trial,57,487530,0.0-57.0,,,,,833.0,,,arrowright,photo (left arrow)&emsp;&emsp;&emsp;&emsp;drawing (right arrow),perceptual,3000.0,,/static/object_pics/drawing_insect/scorpion.jpg,7000.0,animate,drawing,1185.9402468703422,True,,MEM,MEM_0061,2022-12-08 22:01:46
,visual-trial,58,492102,0.0-58.0,,,,,695.0,,,arrowleft,photo (left arrow)&emsp;&emsp;&emsp;&emsp;drawing (right arrow),perceptual,3000.0,,/static/object_pics/picture_bird/peacock.jpg,7000.0,animate,photo,862.5672448834696,True,,MEM,MEM_0061,2022-12-08 22:01:46
,visual-trial,59,497081,0.0-59.0,,,,,713.0,,,arrowleft,photo (left arrow)&emsp;&emsp;&emsp;&emsp;drawing (right arrow),perceptual,3000.0,,/static/object_pics/picture_sea/seal.jpg,7000.0,animate,photo,1248.457109938332,True,,MEM,MEM_0061,2022-12-08 22:01:46
,visual-trial,60,502386,0.0-60.0,,,,,1489.0,,,arrowright,animate (left arrow)&emsp;&emsp;&emsp;&emsp;inanimate (right arrow),semantic,3000.0,,/static/object_pics/drawing_fruit/pomegranate.jpg,7000.0,inanimate,drawing,794.2602225212221,True,,MEM,MEM_0061,2022-12-08 22:01:46
,visual-trial,61,507756,0.0-61.0,,,,,892.0,,,arrowright,animate (left arrow)&emsp;&emsp;&emsp;&emsp;inanimate (right arrow),semantic,3000.0,,/static/object_pics/picture_clothe/glasses.jpg,7000.0,inanimate,photo,1463.6943351844686,True,,MEM,MEM_0061,2022-12-08 22:01:46
,visual-trial,62,512275,0.0-62.0,,,,,908.0,,,arrowright,photo (left arrow)&emsp;&emsp;&emsp;&emsp;drawing (right arrow),perceptual,3000.0,,/static/object_pics/drawing_veggie/asparagus.jpg,7000.0,inanimate,drawing,597.2319417712755,True,,MEM,MEM_0061,2022-12-08 22:01:46
,visual-trial,63,517148,0.0-63.0,,,,,940.0,,,arrowright,animate (left arrow)&emsp;&emsp;&emsp;&emsp;inanimate (right arrow),semantic,3000.0,,/static/object_pics/drawing_fruit/watermelon.jpg,7000.0,inanimate,drawing,911.6556081911071,True,,MEM,MEM_0061,2022-12-08 22:01:46
,visual-trial,64,521888,0.0-64.0,,,,,777.0,,,arrowleft,photo (left arrow)&emsp;&emsp;&emsp;&emsp;drawing (right arrow),perceptual,3000.0,,/static/object_pics/picture_bird/pelican.jpg,7000.0,animate,photo,949.8431695076774,True,,MEM,MEM_0061,2022-12-08 22:01:46
,visual-trial,65,527048,0.0-65.0,,,,,1225.0,,,arrowleft,animate (left arrow)&emsp;&emsp;&emsp;&emsp;inanimate (right arrow),semantic,3000.0,,/static/object_pics/drawing_insect/ladybug.jpg,7000.0,animate,drawing,923.4273984022739,True,,MEM,MEM_0061,2022-12-08 22:01:46
,visual-trial,66,531996,0.0-66.0,,,,,628.0,,,arrowleft,photo (left arrow)&emsp;&emsp;&emsp;&emsp;drawing (right arrow),perceptual,3000.0,,/static/object_pics/picture_clothe/bowtie.jpg,7000.0,inanimate,photo,1305.6148073839818,True,,MEM,MEM_0061,2022-12-08 22:01:46
,visual-trial,67,537540,0.0-67.0,,,,,1091.0,,,arrowleft,animate (left arrow)&emsp;&emsp;&emsp;&emsp;inanimate (right arrow),semantic,3000.0,,/static/object_pics/picture_sea/pufferfish.jpg,7000.0,animate,photo,1438.2915880610835,True,,MEM,MEM_0061,2022-12-08 22:01:46
,visual-trial,68,542275,0.0-68.0,,,,,595.0,,,arrowleft,photo (left arrow)&emsp;&emsp;&emsp;&emsp;drawing (right arrow),perceptual,3000.0,,/static/object_pics/picture_electronic/microphone.jpg,7000.0,inanimate,photo,1124.6811905368863,True,,MEM,MEM_0061,2022-12-08 22:01:46
,visual-trial,69,547627,0.0-69.0,,,,,1242.0,,,arrowright,animate (left arrow)&emsp;&emsp;&emsp;&emsp;inanimate (right arrow),semantic,3000.0,,/static/object_pics/drawing_fruit/cherry.jpg,7000.0,inanimate,drawing,1093.9148626384972,True,,MEM,MEM_0061,2022-12-08 22:01:46
,visual-trial,70,552275,0.0-70.0,,,,,723.0,,,arrowright,photo (left arrow)&emsp;&emsp;&emsp;&emsp;drawing (right arrow),perceptual,3000.0,,/static/object_pics/drawing_fruit/orange.jpg,7000.0,inanimate,drawing,915.8546242772986,True,,MEM,MEM_0061,2022-12-08 22:01:46
,visual-trial,71,556875,0.0-71.0,,,,,625.0,,,arrowright,photo (left arrow)&emsp;&emsp;&emsp;&emsp;drawing (right arrow),perceptual,3000.0,,/static/object_pics/drawing_mammal/sheep.jpg,7000.0,animate,drawing,961.9787523750729,True,,MEM,MEM_0061,2022-12-08 22:01:46
,visual-trial,72,561857,0.0-72.0,,,,,841.0,,,arrowright,photo (left arrow)&emsp;&emsp;&emsp;&emsp;drawing (right arrow),perceptual,3000.0,,/static/object_pics/drawing_insect/beetle.jpg,7000.0,animate,drawing,1122.0392948550475,True,,MEM,MEM_0061,2022-12-08 22:01:46
,visual-trial,73,566983,0.0-73.0,,,,,614.0,,,arrowleft,photo (left arrow)&emsp;&emsp;&emsp;&emsp;drawing (right arrow),perceptual,3000.0,,/static/object_pics/picture_bird/canary.jpg,7000.0,animate,photo,1497.8506667732352,True,,MEM,MEM_0061,2022-12-08 22:01:46
,visual-trial,74,571684,0.0-74.0,,,,,684.0,,,arrowright,photo (left arrow)&emsp;&emsp;&emsp;&emsp;drawing (right arrow),perceptual,3000.0,,/static/object_pics/drawing_mammal/squirrel.jpg,7000.0,animate,drawing,1003.043040883415,True,,MEM,MEM_0061,2022-12-08 22:01:46
,html-keyboard-response,75,609872,0.0-75.0,,,,,38187.0,"
        <p>In that last set of trials, you were correct 100% of the time.</p>
        <p>Feel free to take a brief break. In the next set of trials, you will continue with the same task.
        The instructions are displayed below, in case you need a refresher.
        Press the space bar when you are ready to continue.</p>
        <p>In this task, you will see a series of objects. On some trials, your job is to determine
        whether the object shown is a color photograph or a line drawing. On other trials, your job
        is to determine whether the object represented is animate or inanimate.

        <br><br>
        You will know which response to make depending on the initial display, which will say
        ""animate / inanimate"" or ""photo / drawing"".
        <br>
        You will be able to use the left arrow key to report animate/photo and the right arrow key to report inanimate/drawing.
        <br>
        Please respond as quickly as possible, and use your dominant hand to make your responses.
        <br><br>
        You will be able to use the left arrow key to report animate/photo and the right arrow key to report inanimate/drawing.
        <br><br>
        <img src=""/static/instructions_pics/visual_pic.png"" height=""300px"">
        <br>
        In the example in the top row, the correct response is animate (left arrow key). In the example in the bottom row, the correct response is photo (left arrow key).
        <br>
        <br>When you are ready to begin, press the space bar.</p>", ,,,,,,,,,,,,,MEM,MEM_0061,2022-12-08 22:01:46
,visual-trial,76,614370,0.0-76.0,,,,,729.0,,,arrowright,animate (left arrow)&emsp;&emsp;&emsp;&emsp;inanimate (right arrow),semantic,3000.0,,/static/object_pics/picture_electronic/radio02.jpg,7000.0,inanimate,photo,752.3466642846615,True,,MEM,MEM_0061,2022-12-08 22:01:46
,visual-trial,77,619397,0.0-77.0,,,,,854.0,,,arrowleft,animate (left arrow)&emsp;&emsp;&emsp;&emsp;inanimate (right arrow),semantic,3000.0,,/static/object_pics/picture_sea/jellyfish.jpg,7000.0,animate,photo,1149.9698638120553,True,,MEM,MEM_0061,2022-12-08 22:01:46
,visual-trial,78,624639,0.0-78.0,,,,,847.0,,,arrowleft,photo (left arrow)&emsp;&emsp;&emsp;&emsp;drawing (right arrow),perceptual,3000.0,,/static/object_pics/picture_bird/ostrich.jpg,7000.0,animate,photo,1381.762865594083,True,,MEM,MEM_0061,2022-12-08 22:01:46
,visual-trial,79,629110,0.0-79.0,,,,,598.0,,,arrowleft,photo (left arrow)&emsp;&emsp;&emsp;&emsp;drawing (right arrow),perceptual,3000.0,,/static/object_pics/picture_bird/pigeon.jpg,7000.0,animate,photo,856.1450377804588,True,,MEM,MEM_0061,2022-12-08 22:01:46
,visual-trial,80,633319,0.0-80.0,,,,,663.0,,,arrowleft,photo (left arrow)&emsp;&emsp;&emsp;&emsp;drawing (right arrow),perceptual,3000.0,,/static/object_pics/picture_electronic/camera.jpg,7000.0,inanimate,photo,531.7250129448328,True,,MEM,MEM_0061,2022-12-08 22:01:46
,visual-trial,81,638248,0.0-81.0,,,,,1056.0,,,arrowright,animate (left arrow)&emsp;&emsp;&emsp;&emsp;inanimate (right arrow),semantic,3000.0,,/static/object_pics/drawing_fruit/melon.jpg,7000.0,inanimate,drawing,861.9077278247491,True,,MEM,MEM_0061,2022-12-08 22:01:46
,visual-trial,82,642875,0.0-82.0,,,,,699.0,,,arrowright,animate (left arrow)&emsp;&emsp;&emsp;&emsp;inanimate (right arrow),semantic,3000.0,,/static/object_pics/drawing_veggie/lettuce.jpg,7000.0,inanimate,drawing,918.4948502089389,True,,MEM,MEM_0061,2022-12-08 22:01:46
,visual-trial,83,647981,0.0-83.0,,,,,949.0,,,arrowleft,animate (left arrow)&emsp;&emsp;&emsp;&emsp;inanimate (right arrow),semantic,3000.0,,/static/object_pics/drawing_mammal/kangaroo.jpg,7000.0,animate,drawing,1141.305396178798,True,,MEM,MEM_0061,2022-12-08 22:01:46
,visual-trial,84,653013,0.0-84.0,,,,,597.0,,,arrowleft,animate (left arrow)&emsp;&emsp;&emsp;&emsp;inanimate (right arrow),semantic,3000.0,,/static/object_pics/picture_bird/duck.jpg,7000.0,animate,photo,1421.0835866445614,True,,MEM,MEM_0061,2022-12-08 22:01:46
,visual-trial,85,657820,0.0-85.0,,,,,652.0,,,arrowleft,photo (left arrow)&emsp;&emsp;&emsp;&emsp;drawing (right arrow),perceptual,3000.0,,/static/object_pics/picture_clothe/hoodie.jpg,7000.0,inanimate,photo,1143.0605554470462,True,,MEM,MEM_0061,2022-12-08 22:01:46
,visual-trial,86,662676,0.0-86.0,,,,,804.0,,,arrowright,animate (left arrow)&emsp;&emsp;&emsp;&emsp;inanimate (right arrow),semantic,3000.0,,/static/object_pics/picture_clothe/high heels.jpg,7000.0,inanimate,photo,1037.0681016626377,True,,MEM,MEM_0061,2022-12-08 22:01:46
,visual-trial,87,667486,0.0-87.0,,,,,727.0,,,arrowright,photo (left arrow)&emsp;&emsp;&emsp;&emsp;drawing (right arrow),perceptual,3000.0,,/static/object_pics/drawing_insect/fly.jpg,7000.0,animate,drawing,1073.510616645478,True,,MEM,MEM_0061,2022-12-08 22:01:46
,visual-trial,88,672384,0.0-88.0,,,,,616.0,,,arrowleft,photo (left arrow)&emsp;&emsp;&emsp;&emsp;drawing (right arrow),perceptual,3000.0,,/static/object_pics/picture_bird/hen.jpg,7000.0,animate,photo,1261.2213908936858,True,,MEM,MEM_0061,2022-12-08 22:01:46
,visual-trial,89,677397,0.0-89.0,,,,,876.0,,,arrowright,animate (left arrow)&emsp;&emsp;&emsp;&emsp;inanimate (right arrow),semantic,3000.0,,/static/object_pics/drawing_fruit/apricot.jpg,7000.0,inanimate,drawing,1122.011877223396,True,,MEM,MEM_0061,2022-12-08 22:01:46
,visual-trial,90,681742,0.0-90.0,,,,,652.0,,,arrowleft,photo (left arrow)&emsp;&emsp;&emsp;&emsp;drawing (right arrow),perceptual,3000.0,,/static/object_pics/picture_clothe/dress.jpg,7000.0,inanimate,photo,677.6636171129986,True,,MEM,MEM_0061,2022-12-08 22:01:46
,visual-trial,91,686088,0.0-91.0,,,,,720.0,,,arrowright,photo (left arrow)&emsp;&emsp;&emsp;&emsp;drawing (right arrow),perceptual,3000.0,,/static/object_pics/drawing_insect/mantis.jpg,7000.0,animate,drawing,607.1680379835911,True,,MEM,MEM_0061,2022-12-08 22:01:46
,visual-trial,92,690947,0.0-92.0,,,,,571.0,,,arrowright,photo (left arrow)&emsp;&emsp;&emsp;&emsp;drawing (right arrow),perceptual,3000.0,,/static/object_pics/drawing_veggie/beetroot.jpg,7000.0,inanimate,drawing,1270.146602408725,True,,MEM,MEM_0061,2022-12-08 22:01:46
,visual-trial,93,696005,0.0-93.0,,,,,765.0,,,arrowright,animate (left arrow)&emsp;&emsp;&emsp;&emsp;inanimate (right arrow),semantic,3000.0,,/static/object_pics/picture_electronic/coffee maker.jpg,7000.0,inanimate,photo,1277.8163074282927,True,,MEM,MEM_0061,2022-12-08 22:01:46
,visual-trial,94,700947,0.0-94.0,,,,,1098.0,,,arrowright,animate (left arrow)&emsp;&emsp;&emsp;&emsp;inanimate (right arrow),semantic,3000.0,,/static/object_pics/picture_clothe/football sneaker.jpg,7000.0,inanimate,photo,827.3102426832136,True,,MEM,MEM_0061,2022-12-08 22:01:46
,visual-trial,95,706108,0.0-95.0,,,,,1298.0,,,arrowleft,photo (left arrow)&emsp;&emsp;&emsp;&emsp;drawing (right arrow),perceptual,3000.0,,/static/object_pics/picture_electronic/computer mouse.jpg,7000.0,inanimate,photo,845.4195022227498,True,,MEM,MEM_0061,2022-12-08 22:01:46
,visual-trial,96,711227,0.0-96.0,,,,,1019.0,,,arrowleft,animate (left arrow)&emsp;&emsp;&emsp;&emsp;inanimate (right arrow),semantic,3000.0,,/static/object_pics/picture_sea/dolphin.jpg,7000.0,animate,photo,1083.531692052274,True,,MEM,MEM_0061,2022-12-08 22:01:46
,visual-trial,97,715520,0.0-97.0,,,,,751.0,,,arrowright,animate (left arrow)&emsp;&emsp;&emsp;&emsp;inanimate (right arrow),semantic,3000.0,,/static/object_pics/picture_clothe/hat.jpg,7000.0,inanimate,photo,524.489616647156,True,,MEM,MEM_0061,2022-12-08 22:01:46
,visual-trial,98,720395,0.0-98.0,,,,,1234.0,,,arrowright,animate (left arrow)&emsp;&emsp;&emsp;&emsp;inanimate (right arrow),semantic,3000.0,,/static/object_pics/drawing_fruit/pineapple.jpg,7000.0,inanimate,drawing,628.3143404868549,True,,MEM,MEM_0061,2022-12-08 22:01:46
,visual-trial,99,725226,0.0-99.0,,,,,585.0,,,arrowright,photo (left arrow)&emsp;&emsp;&emsp;&emsp;drawing (right arrow),perceptual,3000.0,,/static/object_pics/drawing_veggie/garlic.jpg,7000.0,inanimate,drawing,1230.3646339077582,True,,MEM,MEM_0061,2022-12-08 22:01:46
,visual-trial,100,730554,0.0-100.0,,,,,1168.0,,,arrowleft,photo (left arrow)&emsp;&emsp;&emsp;&emsp;drawing (right arrow),perceptual,3000.0,,/static/object_pics/picture_electronic/keyboard.jpg,7000.0,inanimate,photo,1146.8206940742157,True,,MEM,MEM_0061,2022-12-08 22:01:46
,visual-trial,101,735171,0.0-101.0,,,,,890.0,,,arrowleft,animate (left arrow)&emsp;&emsp;&emsp;&emsp;inanimate (right arrow),semantic,3000.0,,/static/object_pics/picture_bird/penguin.jpg,7000.0,animate,photo,712.8672791028558,True,,MEM,MEM_0061,2022-12-08 22:01:46
,visual-trial,102,740240,0.0-102.0,,,,,855.0,,,arrowleft,animate (left arrow)&emsp;&emsp;&emsp;&emsp;inanimate (right arrow),semantic,3000.0,,/static/object_pics/drawing_insect/cockroach.jpg,7000.0,animate,drawing,1187.458900773817,True,,MEM,MEM_0061,2022-12-08 22:01:46
,visual-trial,103,744878,0.0-103.0,,,,,606.0,,,arrowleft,animate (left arrow)&emsp;&emsp;&emsp;&emsp;inanimate (right arrow),semantic,3000.0,,/static/object_pics/picture_sea/swordfish.jpg,7000.0,animate,photo,1018.1201832037699,True,,MEM,MEM_0061,2022-12-08 22:01:46
,visual-trial,104,749747,0.0-104.0,,,,,859.0,,,arrowright,animate (left arrow)&emsp;&emsp;&emsp;&emsp;inanimate (right arrow),semantic,3000.0,,/static/object_pics/drawing_veggie/cauliflower.jpg,7000.0,inanimate,drawing,1000.8596980015525,True,,MEM,MEM_0061,2022-12-08 22:01:46
,visual-trial,105,754713,0.0-105.0,,,,,529.0,,,arrowleft,photo (left arrow)&emsp;&emsp;&emsp;&emsp;drawing (right arrow),perceptual,3000.0,,/static/object_pics/picture_sea/shrimp.jpg,7000.0,animate,photo,1423.2244383378884,True,,MEM,MEM_0061,2022-12-08 22:01:46
,visual-trial,106,759320,0.0-106.0,,,,,624.0,,,arrowright,animate (left arrow)&emsp;&emsp;&emsp;&emsp;inanimate (right arrow),semantic,3000.0,,/static/object_pics/picture_clothe/tie.jpg,7000.0,inanimate,photo,973.4777311493348,True,,MEM,MEM_0061,2022-12-08 22:01:46
,visual-trial,107,763866,0.0-107.0,,,,,945.0,,,arrowright,animate (left arrow)&emsp;&emsp;&emsp;&emsp;inanimate (right arrow),semantic,3000.0,,/static/object_pics/drawing_fruit/coconut.jpg,7000.0,inanimate,drawing,586.0553399730456,True,,MEM,MEM_0061,2022-12-08 22:01:46
,html-keyboard-response,108,880695,0.0-108.0,,,,,116829.0,"
        <p>In that last set of trials, you were correct 100% of the time.</p>
        <p>Feel free to take a brief break. In the next set of trials, you will continue with the same task.
        The instructions are displayed below, in case you need a refresher.
        Press the space bar when you are ready to continue.</p>
        <p>In this task, you will see a series of objects. On some trials, your job is to determine
        whether the object shown is a color photograph or a line drawing. On other trials, your job
        is to determine whether the object represented is animate or inanimate.

        <br><br>
        You will know which response to make depending on the initial display, which will say
        ""animate / inanimate"" or ""photo / drawing"".
        <br>
        You will be able to use the left arrow key to report animate/photo and the right arrow key to report inanimate/drawing.
        <br>
        Please respond as quickly as possible, and use your dominant hand to make your responses.
        <br><br>
        You will be able to use the left arrow key to report animate/photo and the right arrow key to report inanimate/drawing.
        <br><br>
        <img src=""/static/instructions_pics/visual_pic.png"" height=""300px"">
        <br>
        In the example in the top row, the correct response is animate (left arrow key). In the example in the bottom row, the correct response is photo (left arrow key).
        <br>
        <br>When you are ready to begin, press the space bar.</p>", ,,,,,,,,,,,,,MEM,MEM_0061,2022-12-08 22:01:46
,visual-trial,109,885569,0.0-109.0,,,,,591.0,,,arrowleft,photo (left arrow)&emsp;&emsp;&emsp;&emsp;drawing (right arrow),perceptual,3000.0,,/static/object_pics/picture_sea/crab.jpg,7000.0,animate,photo,1268.4641683159289,True,,MEM,MEM_0061,2022-12-08 22:01:46
,visual-trial,110,889988,0.0-110.0,,,,,652.0,,,arrowleft,photo (left arrow)&emsp;&emsp;&emsp;&emsp;drawing (right arrow),perceptual,3000.0,,/static/object_pics/picture_bird/hummingbird.jpg,7000.0,animate,photo,753.1289544145785,True,,MEM,MEM_0061,2022-12-08 22:01:46
,visual-trial,111,894883,0.0-111.0,,,,,722.0,,,arrowright,animate (left arrow)&emsp;&emsp;&emsp;&emsp;inanimate (right arrow),semantic,3000.0,,/static/object_pics/drawing_fruit/kiwi.jpg,7000.0,inanimate,drawing,1160.517475278425,True,,MEM,MEM_0061,2022-12-08 22:01:46
,visual-trial,112,899981,0.0-112.0,,,,,717.0,,,arrowright,animate (left arrow)&emsp;&emsp;&emsp;&emsp;inanimate (right arrow),semantic,3000.0,,/static/object_pics/drawing_veggie/aubergine.jpg,7000.0,inanimate,drawing,1363.703871497633,True,,MEM,MEM_0061,2022-12-08 22:01:46
,visual-trial,113,905789,0.0-113.0,,,,,1325.0,,,arrowright,photo (left arrow)&emsp;&emsp;&emsp;&emsp;drawing (right arrow),perceptual,3000.0,,/static/object_pics/drawing_mammal/bison.jpg,7000.0,animate,drawing,1470.573848338312,True,,MEM,MEM_0061,2022-12-08 22:01:46
,visual-trial,114,910939,0.0-114.0,,,,,755.0,,,arrowright,animate (left arrow)&emsp;&emsp;&emsp;&emsp;inanimate (right arrow),semantic,3000.0,,/static/object_pics/drawing_fruit/lemon.jpg,7000.0,inanimate,drawing,1383.2196926060224,True,,MEM,MEM_0061,2022-12-08 22:01:46
,visual-trial,115,915756,0.0-115.0,,,,,700.0,,,arrowright,animate (left arrow)&emsp;&emsp;&emsp;&emsp;inanimate (right arrow),semantic,3000.0,,/static/object_pics/picture_clothe/slipper.jpg,7000.0,inanimate,photo,1101.4707701194238,True,,MEM,MEM_0061,2022-12-08 22:01:46
,visual-trial,116,920808,0.0-116.0,,,,,840.0,,,arrowleft,animate (left arrow)&emsp;&emsp;&emsp;&emsp;inanimate (right arrow),semantic,3000.0,,/static/object_pics/drawing_mammal/giraffe.jpg,7000.0,animate,drawing,1192.899202234406,True,,MEM,MEM_0061,2022-12-08 22:01:46
,visual-trial,117,925210,0.0-117.0,,,,,570.0,,,arrowright,photo (left arrow)&emsp;&emsp;&emsp;&emsp;drawing (right arrow),perceptual,3000.0,,/static/object_pics/drawing_insect/grasshopper.jpg,7000.0,animate,drawing,810.8497145802162,True,,MEM,MEM_0061,2022-12-08 22:01:46
,visual-trial,118,929533,0.0-118.0,,,,,637.0,,,arrowright,photo (left arrow)&emsp;&emsp;&emsp;&emsp;drawing (right arrow),perceptual,3000.0,,/static/object_pics/drawing_fruit/banana.jpg,7000.0,inanimate,drawing,658.269505231442,True,,MEM,MEM_0061,2022-12-08 22:01:46
,visual-trial,119,934230,0.0-119.0,,,,,951.0,,,arrowleft,animate (left arrow)&emsp;&emsp;&emsp;&emsp;inanimate (right arrow),semantic,3000.0,,/static/object_pics/drawing_mammal/horse.jpg,7000.0,animate,drawing,736.4587018368832,True,,MEM,MEM_0061,2022-12-08 22:01:46
,visual-trial,120,939116,0.0-120.0,,,,,620.0,,,arrowright,animate (left arrow)&emsp;&emsp;&emsp;&emsp;inanimate (right arrow),semantic,3000.0,,/static/object_pics/picture_electronic/calculator.jpg,7000.0,inanimate,photo,1255.6093732769164,True,,MEM,MEM_0061,2022-12-08 22:01:46
,visual-trial,121,943716,0.0-121.0,,,,,596.0,,,arrowleft,animate (left arrow)&emsp;&emsp;&emsp;&emsp;inanimate (right arrow),semantic,3000.0,,/static/object_pics/drawing_insect/dragonfly.jpg,7000.0,animate,drawing,987.5043039982702,True,,MEM,MEM_0061,2022-12-08 22:01:46
,visual-trial,122,948017,0.0-122.0,,,,,577.0,,,arrowright,photo (left arrow)&emsp;&emsp;&emsp;&emsp;drawing (right arrow),perceptual,3000.0,,/static/object_pics/drawing_veggie/tomato.jpg,7000.0,inanimate,drawing,709.6989788333548,True,,MEM,MEM_0061,2022-12-08 22:01:46
,visual-trial,123,952635,0.0-123.0,,,,,851.0,,,arrowleft,animate (left arrow)&emsp;&emsp;&emsp;&emsp;inanimate (right arrow),semantic,3000.0,,/static/object_pics/picture_sea/mantaray.jpg,7000.0,animate,photo,753.4779354465024,True,,MEM,MEM_0061,2022-12-08 22:01:46
,visual-trial,124,956941,0.0-124.0,,,,,669.0,,,arrowleft,animate (left arrow)&emsp;&emsp;&emsp;&emsp;inanimate (right arrow),semantic,3000.0,,/static/object_pics/drawing_mammal/antelope.jpg,7000.0,animate,drawing,621.7170257111304,True,,MEM,MEM_0061,2022-12-08 22:01:46
,visual-trial,125,961146,0.0-125.0,,,,,570.0,,,arrowleft,animate (left arrow)&emsp;&emsp;&emsp;&emsp;inanimate (right arrow),semantic,3000.0,,/static/object_pics/drawing_mammal/rhinoceros.jpg,7000.0,animate,drawing,623.9943804485054,True,,MEM,MEM_0061,2022-12-08 22:01:46
,visual-trial,126,966154,0.0-126.0,,,,,539.0,,,arrowright,photo (left arrow)&emsp;&emsp;&emsp;&emsp;drawing (right arrow),perceptual,3000.0,,/static/object_pics/drawing_mammal/camel.jpg,7000.0,animate,drawing,1449.4379701074959,True,,MEM,MEM_0061,2022-12-08 22:01:46
,visual-trial,127,971366,0.0-127.0,,,,,702.0,,,arrowleft,animate (left arrow)&emsp;&emsp;&emsp;&emsp;inanimate (right arrow),semantic,3000.0,,/static/object_pics/drawing_insect/centipede.jpg,7000.0,animate,drawing,1492.5901976718528,True,,MEM,MEM_0061,2022-12-08 22:01:46
,visual-trial,128,975968,0.0-128.0,,,,,680.0,,,arrowright,animate (left arrow)&emsp;&emsp;&emsp;&emsp;inanimate (right arrow),semantic,3000.0,,/static/object_pics/drawing_veggie/mushrooms.jpg,7000.0,inanimate,drawing,905.466367884597,True,,MEM,MEM_0061,2022-12-08 22:01:46
,visual-trial,129,980924,0.0-129.0,,,,,572.0,,,arrowright,photo (left arrow)&emsp;&emsp;&emsp;&emsp;drawing (right arrow),perceptual,3000.0,,/static/object_pics/drawing_veggie/cucumber.jpg,7000.0,inanimate,drawing,1366.2083467522202,True,,MEM,MEM_0061,2022-12-08 22:01:46
,visual-trial,130,985665,0.0-130.0,,,,,496.0,,,arrowright,photo (left arrow)&emsp;&emsp;&emsp;&emsp;drawing (right arrow),perceptual,3000.0,,/static/object_pics/drawing_insect/butterfly.jpg,7000.0,animate,drawing,1234.6153289489432,True,,MEM,MEM_0061,2022-12-08 22:01:46
,visual-trial,131,990587,0.0-131.0,,,,,580.0,,,arrowleft,photo (left arrow)&emsp;&emsp;&emsp;&emsp;drawing (right arrow),perceptual,3000.0,,/static/object_pics/picture_electronic/gamepad.jpg,7000.0,inanimate,photo,1333.1025489425278,True,,MEM,MEM_0061,2022-12-08 22:01:46
,visual-trial,132,995348,0.0-132.0,,,,,796.0,,,arrowright,animate (left arrow)&emsp;&emsp;&emsp;&emsp;inanimate (right arrow),semantic,3000.0,,/static/object_pics/drawing_insect/ant.jpg,7000.0,animate,drawing,952.3662452257308,False,,MEM,MEM_0061,2022-12-08 22:01:46
,visual-trial,133,1000120,0.0-133.0,,,,,1096.0,,,arrowright,photo (left arrow)&emsp;&emsp;&emsp;&emsp;drawing (right arrow),perceptual,3000.0,,/static/object_pics/drawing_fruit/strawberry.jpg,7000.0,inanimate,drawing,665.8019483909292,True,,MEM,MEM_0061,2022-12-08 22:01:46
,visual-trial,134,1004458,0.0-134.0,,,,,761.0,,,arrowleft,photo (left arrow)&emsp;&emsp;&emsp;&emsp;drawing (right arrow),perceptual,3000.0,,/static/object_pics/picture_electronic/hairdryer.jpg,7000.0,inanimate,photo,561.0282822164643,True,,MEM,MEM_0061,2022-12-08 22:01:46
,visual-trial,135,1009039,0.0-135.0,,,,,790.0,,,arrowleft,photo (left arrow)&emsp;&emsp;&emsp;&emsp;drawing (right arrow),perceptual,3000.0,,/static/object_pics/picture_bird/flamingo.jpg,7000.0,animate,photo,777.5463326309442,True,,MEM,MEM_0061,2022-12-08 22:01:46
,visual-trial,136,1013712,0.0-136.0,,,,,711.0,,,arrowleft,animate (left arrow)&emsp;&emsp;&emsp;&emsp;inanimate (right arrow),semantic,3000.0,,/static/object_pics/drawing_mammal/wolf.jpg,7000.0,animate,drawing,948.0812820394976,True,,MEM,MEM_0061,2022-12-08 22:01:46
,visual-trial,137,1018908,0.0-137.0,,,,,1117.0,,,arrowright,animate (left arrow)&emsp;&emsp;&emsp;&emsp;inanimate (right arrow),semantic,3000.0,,/static/object_pics/drawing_veggie/pepper.jpg,7000.0,inanimate,drawing,1058.1762771045362,True,,MEM,MEM_0061,2022-12-08 22:01:46
,visual-trial,138,1023602,0.0-138.0,,,,,833.0,,,arrowleft,animate (left arrow)&emsp;&emsp;&emsp;&emsp;inanimate (right arrow),semantic,3000.0,,/static/object_pics/drawing_insect/mosquito.jpg,7000.0,animate,drawing,844.4724991537757,True,,MEM,MEM_0061,2022-12-08 22:01:46
,visual-trial,139,1028025,0.0-139.0,,,,,776.0,,,arrowleft,photo (left arrow)&emsp;&emsp;&emsp;&emsp;drawing (right arrow),perceptual,3000.0,,/static/object_pics/picture_clothe/sport t-shirt.jpg,7000.0,inanimate,photo,633.8500923164852,True,,MEM,MEM_0061,2022-12-08 22:01:46
,visual-trial,140,1033104,0.0-140.0,,,,,783.0,,,arrowleft,animate (left arrow)&emsp;&emsp;&emsp;&emsp;inanimate (right arrow),semantic,3000.0,,/static/object_pics/picture_sea/seaturtle.jpg,7000.0,animate,photo,1279.858558337453,True,,MEM,MEM_0061,2022-12-08 22:01:46
,html-keyboard-response,141,1040018,0.0-141.0,,,,,6914.0,"
      <p>Thank you for your participation!</p>
      The goal of this study is to replicate previous findings that the timing of responses in memory-dependent tasks
      is rhythmic in nature (compared to the timing of responses in memory-independent tasks).
      You performed the memory-independent tasks in this study.
      <br>
      Your participation will allow us to better understand how memory works.
      Please do not share this information with other potential participants.
      <br>
      Press the space bar to continue.</p>", ,,,,,,,,,,,,,MEM,MEM_0061,2022-12-08 22:01:46
