success,trial_type,trial_index,time_elapsed,internal_node_id,timeout,failed_images,failed_audio,failed_video,rt,stimulus,response,key,instruction,instruction_class,instruction_duration,prompt,object,object_duration,animacy,style,jitter,accurate,question_order,exp,subjectId,date
True,fullscreen,0,7252,0.0-0.0,,,,,,,,,,,,,,,,,,,,MEM,MEM_0059,2022-12-08 21:49:30
True,preload,1,12075,0.0-1.0,False,[],[],[],,,,,,,,,,,,,,,,MEM,MEM_0059,2022-12-08 21:49:30
,html-keyboard-response,2,62434,0.0-2.0,,,,,50357.0,"
      <p>In this task, you will see a series of objects. On some trials, your job is to determine
      whether the object shown is a color photograph or a line drawing. On other trials, your job
      is to determine whether the object represented is animate or inanimate.

      <br><br>
      You will know which response to make depending on the initial display, which will say
      ""animate / inanimate"" or ""photo / drawing"".
      <br>
      <br>
      You will be able to use the left arrow key to report animate/photo and the right arrow key to report inanimate/drawing.
      <br>
      Please respond as quickly as possible, and use your dominant hand to make your responses.
      <br><br>
      <img src=""/static/instructions_pics/visual_pic.png"" height=""300px"">
      <br>
      In the example in the top row, the correct response is animate (left arrow key). In the example in the bottom row, the correct response is photo (left arrow key).
      <br>
      <br>You will first do some practice trials. When you are ready to begin, press the space bar.</p>", ,,,,,,,,,,,,,MEM,MEM_0059,2022-12-08 21:49:30
,visual-trial,3,67657,0.0-3.0,,,,,1452.0,,,arrowleft,animate (left arrow)&emsp;&emsp;&emsp;&emsp;inanimate (right arrow),semantic,3000.0,,/static/for_instructions/object_pics/drawing_bird/heron.jpg,7000.0,animate,drawing,758.8509318999752,True,,MEM,MEM_0059,2022-12-08 21:49:30
,visual-trial,4,72758,0.0-4.0,,,,,723.0,,,arrowright,photo (left arrow)&emsp;&emsp;&emsp;&emsp;drawing (right arrow),perceptual,3000.0,,/static/for_instructions/object_pics/picture_electronic/flashlight.jpg,7000.0,inanimate,photo,1357.3462250396224,False,,MEM,MEM_0059,2022-12-08 21:49:30
,visual-trial,5,77854,0.0-5.0,,,,,698.0,,,arrowleft,animate (left arrow)&emsp;&emsp;&emsp;&emsp;inanimate (right arrow),semantic,3000.0,,/static/for_instructions/object_pics/drawing_clothe/hockey helmet.jpg,7000.0,inanimate,drawing,1383.711633748415,False,,MEM,MEM_0059,2022-12-08 21:49:30
,visual-trial,6,82823,0.0-6.0,,,,,1202.0,,,arrowleft,photo (left arrow)&emsp;&emsp;&emsp;&emsp;drawing (right arrow),perceptual,3000.0,,/static/for_instructions/object_pics/picture_veggie/avocado.jpg,7000.0,inanimate,photo,751.6574231802076,True,,MEM,MEM_0059,2022-12-08 21:49:30
,survey-multi-choice,7,90974,0.0-7.0-0.0,,,,,8149.0,,"{'Style': 'True', 'Animacy': 'True'}",,,,,,,,,,,,"[0, 1]",MEM,MEM_0059,2022-12-08 21:49:30
,html-keyboard-response,8,95689,0.0-8.0,,,,,4710.0,"
      <p>Great job! Now you'll continue onto doing the main task.
      You will have the opportunity to take brief breaks at various points.
      Good luck!<br>Press the space bar to continue.</p>", ,,,,,,,,,,,,,MEM,MEM_0059,2022-12-08 21:49:30
True,fullscreen,9,101277,0.0-9.0,,,,,,,,,,,,,,,,,,,,MEM,MEM_0059,2022-12-08 21:49:30
,visual-trial,10,106673,0.0-10.0,,,,,1214.0,,,arrowleft,animate (left arrow)&emsp;&emsp;&emsp;&emsp;inanimate (right arrow),semantic,3000.0,,/static/object_pics/drawing_bird/owl.jpg,7000.0,animate,drawing,1154.6437767112761,True,,MEM,MEM_0059,2022-12-08 21:49:30
,visual-trial,11,111617,0.0-11.0,,,,,797.0,,,arrowleft,photo (left arrow)&emsp;&emsp;&emsp;&emsp;drawing (right arrow),perceptual,3000.0,,/static/object_pics/picture_insect/mosquito.jpg,7000.0,animate,photo,1131.328019497059,True,,MEM,MEM_0059,2022-12-08 21:49:30
,visual-trial,12,116283,0.0-12.0,,,,,574.0,,,arrowright,photo (left arrow)&emsp;&emsp;&emsp;&emsp;drawing (right arrow),perceptual,3000.0,,/static/object_pics/drawing_veggie/cucumber.jpg,7000.0,inanimate,drawing,1080.6091514728319,True,,MEM,MEM_0059,2022-12-08 21:49:30
,visual-trial,13,121394,0.0-13.0,,,,,933.0,,,arrowright,animate (left arrow)&emsp;&emsp;&emsp;&emsp;inanimate (right arrow),semantic,3000.0,,/static/object_pics/picture_fruit/lemon.jpg,7000.0,inanimate,photo,1161.9281304456176,True,,MEM,MEM_0059,2022-12-08 21:49:30
,visual-trial,14,126579,0.0-14.0,,,,,1231.0,,,arrowright,animate (left arrow)&emsp;&emsp;&emsp;&emsp;inanimate (right arrow),semantic,3000.0,,/static/object_pics/drawing_clothe/bowtie.jpg,7000.0,inanimate,drawing,929.0467873230346,True,,MEM,MEM_0059,2022-12-08 21:49:30
,visual-trial,15,131483,0.0-15.0,,,,,919.0,,,arrowleft,photo (left arrow)&emsp;&emsp;&emsp;&emsp;drawing (right arrow),perceptual,3000.0,,/static/object_pics/picture_fruit/melon.jpg,7000.0,inanimate,photo,968.1927801448516,True,,MEM,MEM_0059,2022-12-08 21:49:30
,visual-trial,16,135788,0.0-16.0,,,,,727.0,,,arrowright,photo (left arrow)&emsp;&emsp;&emsp;&emsp;drawing (right arrow),perceptual,3000.0,,/static/object_pics/drawing_sea/shrimp.jpg,7000.0,animate,drawing,567.1714596670852,True,,MEM,MEM_0059,2022-12-08 21:49:30
,visual-trial,17,140159,0.0-17.0,,,,,642.0,,,arrowleft,animate (left arrow)&emsp;&emsp;&emsp;&emsp;inanimate (right arrow),semantic,3000.0,,/static/object_pics/picture_mammal/bull.jpg,7000.0,animate,photo,713.4702579579839,True,,MEM,MEM_0059,2022-12-08 21:49:30
,visual-trial,18,144761,0.0-18.0,,,,,626.0,,,arrowleft,animate (left arrow)&emsp;&emsp;&emsp;&emsp;inanimate (right arrow),semantic,3000.0,,/static/object_pics/picture_mammal/horse.jpg,7000.0,animate,photo,957.3427822972733,True,,MEM,MEM_0059,2022-12-08 21:49:30
,visual-trial,19,149747,0.0-19.0,,,,,776.0,,,arrowright,animate (left arrow)&emsp;&emsp;&emsp;&emsp;inanimate (right arrow),semantic,3000.0,,/static/object_pics/drawing_bird/toucan.jpg,7000.0,animate,drawing,1200.4887987323807,False,,MEM,MEM_0059,2022-12-08 21:49:30
,visual-trial,20,155272,0.0-20.0,,,,,1172.0,,,arrowleft,animate (left arrow)&emsp;&emsp;&emsp;&emsp;inanimate (right arrow),semantic,3000.0,,/static/object_pics/drawing_sea/seal.jpg,7000.0,animate,drawing,1337.3780325516293,True,,MEM,MEM_0059,2022-12-08 21:49:30
,visual-trial,21,159903,0.0-21.0,,,,,986.0,,,arrowright,photo (left arrow)&emsp;&emsp;&emsp;&emsp;drawing (right arrow),perceptual,3000.0,,/static/object_pics/drawing_sea/piranha.jpg,7000.0,animate,drawing,630.0605853444379,True,,MEM,MEM_0059,2022-12-08 21:49:30
,visual-trial,22,164753,0.0-22.0,,,,,820.0,,,arrowleft,photo (left arrow)&emsp;&emsp;&emsp;&emsp;drawing (right arrow),perceptual,3000.0,,/static/object_pics/picture_insect/dragonfly.jpg,7000.0,animate,photo,1018.0372537791113,True,,MEM,MEM_0059,2022-12-08 21:49:30
,visual-trial,23,169615,0.0-23.0,,,,,1307.0,,,arrowright,animate (left arrow)&emsp;&emsp;&emsp;&emsp;inanimate (right arrow),semantic,3000.0,,/static/object_pics/drawing_veggie/beetroot.jpg,7000.0,inanimate,drawing,545.8973266250948,True,,MEM,MEM_0059,2022-12-08 21:49:30
,visual-trial,24,174667,0.0-24.0,,,,,1119.0,,,arrowleft,animate (left arrow)&emsp;&emsp;&emsp;&emsp;inanimate (right arrow),semantic,3000.0,,/static/object_pics/drawing_sea/dolphin.jpg,7000.0,animate,drawing,916.4948341183097,True,,MEM,MEM_0059,2022-12-08 21:49:30
,visual-trial,25,179674,0.0-25.0,,,,,789.0,,,arrowleft,animate (left arrow)&emsp;&emsp;&emsp;&emsp;inanimate (right arrow),semantic,3000.0,,/static/object_pics/picture_mammal/antelope.jpg,7000.0,animate,photo,1204.5062582369587,True,,MEM,MEM_0059,2022-12-08 21:49:30
,visual-trial,26,185592,0.0-26.0,,,,,1460.0,,,arrowleft,photo (left arrow)&emsp;&emsp;&emsp;&emsp;drawing (right arrow),perceptual,3000.0,,/static/object_pics/picture_insect/snail.jpg,7000.0,animate,photo,1448.9432778946098,True,,MEM,MEM_0059,2022-12-08 21:49:30
,visual-trial,27,191413,0.0-27.0,,,,,1312.0,,,arrowright,photo (left arrow)&emsp;&emsp;&emsp;&emsp;drawing (right arrow),perceptual,3000.0,,/static/object_pics/drawing_veggie/carrots.jpg,7000.0,inanimate,drawing,1498.1889395241685,True,,MEM,MEM_0059,2022-12-08 21:49:30
,visual-trial,28,196978,0.0-28.0,,,,,1478.0,,,arrowright,animate (left arrow)&emsp;&emsp;&emsp;&emsp;inanimate (right arrow),semantic,3000.0,,/static/object_pics/picture_fruit/papaya.jpg,7000.0,inanimate,photo,1074.2740176631614,True,,MEM,MEM_0059,2022-12-08 21:49:30
,visual-trial,29,202250,0.0-29.0,,,,,918.0,,,arrowleft,photo (left arrow)&emsp;&emsp;&emsp;&emsp;drawing (right arrow),perceptual,3000.0,,/static/object_pics/picture_mammal/squirrel.jpg,7000.0,animate,photo,1338.8272198927166,True,,MEM,MEM_0059,2022-12-08 21:49:30
,visual-trial,30,207298,0.0-30.0,,,,,846.0,,,arrowright,animate (left arrow)&emsp;&emsp;&emsp;&emsp;inanimate (right arrow),semantic,3000.0,,/static/object_pics/picture_electronic/calculator.jpg,7000.0,inanimate,photo,1186.8932146588195,True,,MEM,MEM_0059,2022-12-08 21:49:30
,visual-trial,31,212991,0.0-31.0,,,,,1235.0,,,arrowleft,animate (left arrow)&emsp;&emsp;&emsp;&emsp;inanimate (right arrow),semantic,3000.0,,/static/object_pics/drawing_bird/pelican.jpg,7000.0,animate,drawing,1448.2659751755104,True,,MEM,MEM_0059,2022-12-08 21:49:30
,visual-trial,32,218668,0.0-32.0,,,,,1391.0,,,arrowright,photo (left arrow)&emsp;&emsp;&emsp;&emsp;drawing (right arrow),perceptual,3000.0,,/static/object_pics/drawing_clothe/jeans.jpg,7000.0,inanimate,drawing,1276.256156912746,True,,MEM,MEM_0059,2022-12-08 21:49:30
,visual-trial,33,223348,0.0-33.0,,,,,1024.0,,,arrowleft,photo (left arrow)&emsp;&emsp;&emsp;&emsp;drawing (right arrow),perceptual,3000.0,,/static/object_pics/picture_electronic/printer.jpg,7000.0,inanimate,photo,636.4132271025227,True,,MEM,MEM_0059,2022-12-08 21:49:30
,visual-trial,34,227792,0.0-34.0,,,,,859.0,,,arrowleft,animate (left arrow)&emsp;&emsp;&emsp;&emsp;inanimate (right arrow),semantic,3000.0,,/static/object_pics/picture_insect/worm.jpg,7000.0,animate,photo,569.4001864594953,True,,MEM,MEM_0059,2022-12-08 21:49:30
,visual-trial,35,232640,0.0-35.0,,,,,724.0,,,arrowright,animate (left arrow)&emsp;&emsp;&emsp;&emsp;inanimate (right arrow),semantic,3000.0,,/static/object_pics/picture_electronic/hairdryer.jpg,7000.0,inanimate,photo,1114.6750070411217,True,,MEM,MEM_0059,2022-12-08 21:49:30
,visual-trial,36,237423,0.0-36.0,,,,,665.0,,,arrowleft,photo (left arrow)&emsp;&emsp;&emsp;&emsp;drawing (right arrow),perceptual,3000.0,,/static/object_pics/picture_insect/beetle.jpg,7000.0,animate,photo,1102.294694022653,True,,MEM,MEM_0059,2022-12-08 21:49:30
,visual-trial,37,242821,0.0-37.0,,,,,993.0,,,arrowleft,photo (left arrow)&emsp;&emsp;&emsp;&emsp;drawing (right arrow),perceptual,3000.0,,/static/object_pics/picture_mammal/sheep.jpg,7000.0,animate,photo,1392.1388253067814,True,,MEM,MEM_0059,2022-12-08 21:49:30
,visual-trial,38,247146,0.0-38.0,,,,,622.0,,,arrowleft,photo (left arrow)&emsp;&emsp;&emsp;&emsp;drawing (right arrow),perceptual,3000.0,,/static/object_pics/picture_fruit/pineapple.jpg,7000.0,inanimate,photo,691.683329348723,True,,MEM,MEM_0059,2022-12-08 21:49:30
,visual-trial,39,253071,0.0-39.0,,,,,1882.0,,,arrowright,photo (left arrow)&emsp;&emsp;&emsp;&emsp;drawing (right arrow),perceptual,3000.0,,/static/object_pics/drawing_sea/killer whale.jpg,7000.0,animate,drawing,1030.8729794746603,True,,MEM,MEM_0059,2022-12-08 21:49:30
,visual-trial,40,257635,0.0-40.0,,,,,910.0,,,arrowleft,photo (left arrow)&emsp;&emsp;&emsp;&emsp;drawing (right arrow),perceptual,3000.0,,/static/object_pics/picture_electronic/coffee maker.jpg,7000.0,inanimate,photo,639.1856173660406,True,,MEM,MEM_0059,2022-12-08 21:49:30
,visual-trial,41,262857,0.0-41.0,,,,,941.0,,,arrowright,animate (left arrow)&emsp;&emsp;&emsp;&emsp;inanimate (right arrow),semantic,3000.0,,/static/object_pics/picture_fruit/strawberry.jpg,7000.0,inanimate,photo,1265.2054315589353,True,,MEM,MEM_0059,2022-12-08 21:49:30
,html-keyboard-response,42,295428,0.0-42.0,,,,,32569.0,"
        <p>In that last set of trials, you were correct 97% of the time.</p>
        <p>Feel free to take a brief break. In the next set of trials, you will continue with the same task.
        The instructions are displayed below, in case you need a refresher.
        Press the space bar when you are ready to continue.</p>
        <p>In this task, you will see a series of objects. On some trials, your job is to determine
        whether the object shown is a color photograph or a line drawing. On other trials, your job
        is to determine whether the object represented is animate or inanimate.

        <br><br>
        You will know which response to make depending on the initial display, which will say
        ""animate / inanimate"" or ""photo / drawing"".
        <br>
        You will be able to use the left arrow key to report animate/photo and the right arrow key to report inanimate/drawing.
        <br>
        Please respond as quickly as possible, and use your dominant hand to make your responses.
        <br><br>
        You will be able to use the left arrow key to report animate/photo and the right arrow key to report inanimate/drawing.
        <br><br>
        <img src=""/static/instructions_pics/visual_pic.png"" height=""300px"">
        <br>
        In the example in the top row, the correct response is animate (left arrow key). In the example in the bottom row, the correct response is photo (left arrow key).
        <br>
        <br>When you are ready to begin, press the space bar.</p>", ,,,,,,,,,,,,,MEM,MEM_0059,2022-12-08 21:49:30
,visual-trial,43,300120,0.0-43.0,,,,,740.0,,,arrowright,animate (left arrow)&emsp;&emsp;&emsp;&emsp;inanimate (right arrow),semantic,3000.0,,/static/object_pics/drawing_clothe/hat.jpg,7000.0,inanimate,drawing,940.5569511237446,True,,MEM,MEM_0059,2022-12-08 21:49:30
,visual-trial,44,305103,0.0-44.0,,,,,811.0,,,arrowleft,photo (left arrow)&emsp;&emsp;&emsp;&emsp;drawing (right arrow),perceptual,3000.0,,/static/object_pics/picture_electronic/gamepad.jpg,7000.0,inanimate,photo,1158.846033516371,True,,MEM,MEM_0059,2022-12-08 21:49:30
,visual-trial,45,310080,0.0-45.0,,,,,855.0,,,arrowleft,animate (left arrow)&emsp;&emsp;&emsp;&emsp;inanimate (right arrow),semantic,3000.0,,/static/object_pics/drawing_bird/penguin.jpg,7000.0,animate,drawing,1099.1438929984806,True,,MEM,MEM_0059,2022-12-08 21:49:30
,visual-trial,46,315630,0.0-46.0,,,,,1217.0,,,arrowleft,photo (left arrow)&emsp;&emsp;&emsp;&emsp;drawing (right arrow),perceptual,3000.0,,/static/object_pics/picture_fruit/pomegranate.jpg,7000.0,inanimate,photo,1322.8376970768754,True,,MEM,MEM_0059,2022-12-08 21:49:30
,visual-trial,47,320701,0.0-47.0,,,,,1009.0,,,arrowleft,animate (left arrow)&emsp;&emsp;&emsp;&emsp;inanimate (right arrow),semantic,3000.0,,/static/object_pics/picture_mammal/camel.jpg,7000.0,animate,photo,1050.811025673888,True,,MEM,MEM_0059,2022-12-08 21:49:30
,visual-trial,48,325663,0.0-48.0,,,,,802.0,,,arrowright,animate (left arrow)&emsp;&emsp;&emsp;&emsp;inanimate (right arrow),semantic,3000.0,,/static/object_pics/drawing_clothe/sport t-shirt.jpg,7000.0,inanimate,drawing,1145.8109593795334,True,,MEM,MEM_0059,2022-12-08 21:49:30
,visual-trial,49,330447,0.0-49.0,,,,,867.0,,,arrowright,animate (left arrow)&emsp;&emsp;&emsp;&emsp;inanimate (right arrow),semantic,3000.0,,/static/object_pics/picture_fruit/cherry.jpg,7000.0,inanimate,photo,901.0156760828982,True,,MEM,MEM_0059,2022-12-08 21:49:30
,visual-trial,50,335255,0.0-50.0,,,,,1058.0,,,arrowright,animate (left arrow)&emsp;&emsp;&emsp;&emsp;inanimate (right arrow),semantic,3000.0,,/static/object_pics/picture_electronic/computer mouse.jpg,7000.0,inanimate,photo,732.7427828828197,True,,MEM,MEM_0059,2022-12-08 21:49:30
,visual-trial,51,340476,0.0-51.0,,,,,999.0,,,arrowleft,photo (left arrow)&emsp;&emsp;&emsp;&emsp;drawing (right arrow),perceptual,3000.0,,/static/object_pics/picture_electronic/laptop.jpg,7000.0,inanimate,photo,1204.567064246235,True,,MEM,MEM_0059,2022-12-08 21:49:30
,visual-trial,52,345751,0.0-52.0,,,,,1187.0,,,arrowleft,photo (left arrow)&emsp;&emsp;&emsp;&emsp;drawing (right arrow),perceptual,3000.0,,/static/object_pics/drawing_sea/seahorse.jpg,7000.0,animate,drawing,1076.8084658238436,False,,MEM,MEM_0059,2022-12-08 21:49:30
,visual-trial,53,350976,0.0-53.0,,,,,781.0,,,arrowright,photo (left arrow)&emsp;&emsp;&emsp;&emsp;drawing (right arrow),perceptual,3000.0,,/static/object_pics/drawing_bird/eagle.jpg,7000.0,animate,drawing,1435.6226662418808,True,,MEM,MEM_0059,2022-12-08 21:49:30
,visual-trial,54,355530,0.0-54.0,,,,,718.0,,,arrowright,photo (left arrow)&emsp;&emsp;&emsp;&emsp;drawing (right arrow),perceptual,3000.0,,/static/object_pics/drawing_clothe/shirt.jpg,7000.0,inanimate,drawing,824.4806748050155,True,,MEM,MEM_0059,2022-12-08 21:49:30
,visual-trial,55,360839,0.0-55.0,,,,,810.0,,,arrowright,animate (left arrow)&emsp;&emsp;&emsp;&emsp;inanimate (right arrow),semantic,3000.0,,/static/object_pics/drawing_veggie/garlic.jpg,7000.0,inanimate,drawing,1488.8117619398645,True,,MEM,MEM_0059,2022-12-08 21:49:30
,visual-trial,56,365462,0.0-56.0,,,,,1050.0,,,arrowright,animate (left arrow)&emsp;&emsp;&emsp;&emsp;inanimate (right arrow),semantic,3000.0,,/static/object_pics/picture_electronic/radio02.jpg,7000.0,inanimate,photo,562.2827567903721,True,,MEM,MEM_0059,2022-12-08 21:49:30
,visual-trial,57,370006,0.0-57.0,,,,,954.0,,,arrowright,photo (left arrow)&emsp;&emsp;&emsp;&emsp;drawing (right arrow),perceptual,3000.0,,/static/object_pics/drawing_clothe/tie.jpg,7000.0,inanimate,drawing,575.8830168023181,True,,MEM,MEM_0059,2022-12-08 21:49:30
,visual-trial,58,374818,0.0-58.0,,,,,534.0,,,arrowleft,photo (left arrow)&emsp;&emsp;&emsp;&emsp;drawing (right arrow),perceptual,3000.0,,/static/object_pics/picture_mammal/bear.jpg,7000.0,animate,photo,1268.6363273997292,True,,MEM,MEM_0059,2022-12-08 21:49:30
,visual-trial,59,379543,0.0-59.0,,,,,883.0,,,arrowright,animate (left arrow)&emsp;&emsp;&emsp;&emsp;inanimate (right arrow),semantic,3000.0,,/static/object_pics/picture_fruit/pear.jpg,7000.0,inanimate,photo,826.786460355639,True,,MEM,MEM_0059,2022-12-08 21:49:30
,visual-trial,60,384745,0.0-60.0,,,,,909.0,,,arrowright,animate (left arrow)&emsp;&emsp;&emsp;&emsp;inanimate (right arrow),semantic,3000.0,,/static/object_pics/picture_electronic/satellite dish.jpg,7000.0,inanimate,photo,1277.2213600595685,True,,MEM,MEM_0059,2022-12-08 21:49:30
,visual-trial,61,390001,0.0-61.0,,,,,1140.0,,,arrowright,animate (left arrow)&emsp;&emsp;&emsp;&emsp;inanimate (right arrow),semantic,3000.0,,/static/object_pics/picture_electronic/keyboard.jpg,7000.0,inanimate,photo,1094.723588496387,True,,MEM,MEM_0059,2022-12-08 21:49:30
,visual-trial,62,396044,0.0-62.0,,,,,2063.0,,,arrowright,photo (left arrow)&emsp;&emsp;&emsp;&emsp;drawing (right arrow),perceptual,3000.0,,/static/object_pics/drawing_veggie/corn.jpg,7000.0,inanimate,drawing,965.8361866769501,True,,MEM,MEM_0059,2022-12-08 21:49:30
,visual-trial,63,401247,0.0-63.0,,,,,1099.0,,,arrowright,photo (left arrow)&emsp;&emsp;&emsp;&emsp;drawing (right arrow),perceptual,3000.0,,/static/object_pics/drawing_clothe/belt.jpg,7000.0,inanimate,drawing,1090.6639659287057,True,,MEM,MEM_0059,2022-12-08 21:49:30
,visual-trial,64,405988,0.0-64.0,,,,,815.0,,,arrowright,photo (left arrow)&emsp;&emsp;&emsp;&emsp;drawing (right arrow),perceptual,3000.0,,/static/object_pics/drawing_veggie/artichoke.jpg,7000.0,inanimate,drawing,915.9974502589823,True,,MEM,MEM_0059,2022-12-08 21:49:30
,visual-trial,65,411015,0.0-65.0,,,,,963.0,,,arrowleft,photo (left arrow)&emsp;&emsp;&emsp;&emsp;drawing (right arrow),perceptual,3000.0,,/static/object_pics/picture_fruit/kiwi.jpg,7000.0,inanimate,photo,1049.2625766620004,True,,MEM,MEM_0059,2022-12-08 21:49:30
,visual-trial,66,415943,0.0-66.0,,,,,851.0,,,arrowright,animate (left arrow)&emsp;&emsp;&emsp;&emsp;inanimate (right arrow),semantic,3000.0,,/static/object_pics/drawing_veggie/lettuce.jpg,7000.0,inanimate,drawing,1054.0293954365611,True,,MEM,MEM_0059,2022-12-08 21:49:30
,visual-trial,67,420739,0.0-67.0,,,,,1239.0,,,arrowright,photo (left arrow)&emsp;&emsp;&emsp;&emsp;drawing (right arrow),perceptual,3000.0,,/static/object_pics/drawing_veggie/mushrooms.jpg,7000.0,inanimate,drawing,547.2565951379569,True,,MEM,MEM_0059,2022-12-08 21:49:30
,visual-trial,68,426266,0.0-68.0,,,,,1038.0,,,arrowleft,photo (left arrow)&emsp;&emsp;&emsp;&emsp;drawing (right arrow),perceptual,3000.0,,/static/object_pics/picture_insect/butterfly.jpg,7000.0,animate,photo,1476.2464129141,True,,MEM,MEM_0059,2022-12-08 21:49:30
,visual-trial,69,431509,0.0-69.0,,,,,833.0,,,arrowleft,photo (left arrow)&emsp;&emsp;&emsp;&emsp;drawing (right arrow),perceptual,3000.0,,/static/object_pics/picture_fruit/banana.jpg,7000.0,inanimate,photo,1395.303853206443,True,,MEM,MEM_0059,2022-12-08 21:49:30
,visual-trial,70,436351,0.0-70.0,,,,,730.0,,,arrowright,animate (left arrow)&emsp;&emsp;&emsp;&emsp;inanimate (right arrow),semantic,3000.0,,/static/object_pics/picture_electronic/remote control.jpg,7000.0,inanimate,photo,1094.1137693847872,True,,MEM,MEM_0059,2022-12-08 21:49:30
,visual-trial,71,441897,0.0-71.0,,,,,1349.0,,,arrowright,animate (left arrow)&emsp;&emsp;&emsp;&emsp;inanimate (right arrow),semantic,3000.0,,/static/object_pics/picture_fruit/coconut.jpg,7000.0,inanimate,photo,1184.3742333227394,True,,MEM,MEM_0059,2022-12-08 21:49:30
,visual-trial,72,446920,0.0-72.0,,,,,1085.0,,,arrowleft,animate (left arrow)&emsp;&emsp;&emsp;&emsp;inanimate (right arrow),semantic,3000.0,,/static/object_pics/picture_insect/mantis.jpg,7000.0,animate,photo,920.0358314008686,True,,MEM,MEM_0059,2022-12-08 21:49:30
,visual-trial,73,451681,0.0-73.0,,,,,740.0,,,arrowleft,animate (left arrow)&emsp;&emsp;&emsp;&emsp;inanimate (right arrow),semantic,3000.0,,/static/object_pics/picture_mammal/rhinoceros.jpg,7000.0,animate,photo,1010.4078380939345,True,,MEM,MEM_0059,2022-12-08 21:49:30
,visual-trial,74,456214,0.0-74.0,,,,,706.0,,,arrowleft,photo (left arrow)&emsp;&emsp;&emsp;&emsp;drawing (right arrow),perceptual,3000.0,,/static/object_pics/picture_insect/bumble bee.jpg,7000.0,animate,photo,812.963691168012,True,,MEM,MEM_0059,2022-12-08 21:49:30
,html-keyboard-response,75,468616,0.0-75.0,,,,,12401.0,"
        <p>In that last set of trials, you were correct 97% of the time.</p>
        <p>Feel free to take a brief break. In the next set of trials, you will continue with the same task.
        The instructions are displayed below, in case you need a refresher.
        Press the space bar when you are ready to continue.</p>
        <p>In this task, you will see a series of objects. On some trials, your job is to determine
        whether the object shown is a color photograph or a line drawing. On other trials, your job
        is to determine whether the object represented is animate or inanimate.

        <br><br>
        You will know which response to make depending on the initial display, which will say
        ""animate / inanimate"" or ""photo / drawing"".
        <br>
        You will be able to use the left arrow key to report animate/photo and the right arrow key to report inanimate/drawing.
        <br>
        Please respond as quickly as possible, and use your dominant hand to make your responses.
        <br><br>
        You will be able to use the left arrow key to report animate/photo and the right arrow key to report inanimate/drawing.
        <br><br>
        <img src=""/static/instructions_pics/visual_pic.png"" height=""300px"">
        <br>
        In the example in the top row, the correct response is animate (left arrow key). In the example in the bottom row, the correct response is photo (left arrow key).
        <br>
        <br>When you are ready to begin, press the space bar.</p>", ,,,,,,,,,,,,,MEM,MEM_0059,2022-12-08 21:49:30
,visual-trial,76,473330,0.0-76.0,,,,,830.0,,,arrowright,animate (left arrow)&emsp;&emsp;&emsp;&emsp;inanimate (right arrow),semantic,3000.0,,/static/object_pics/drawing_veggie/tomato.jpg,7000.0,inanimate,drawing,869.6927484419607,True,,MEM,MEM_0059,2022-12-08 21:49:30
,visual-trial,77,478566,0.0-77.0,,,,,810.0,,,arrowleft,animate (left arrow)&emsp;&emsp;&emsp;&emsp;inanimate (right arrow),semantic,3000.0,,/static/object_pics/drawing_sea/mantaray.jpg,7000.0,animate,drawing,1412.5101450482084,True,,MEM,MEM_0059,2022-12-08 21:49:30
,visual-trial,78,484066,0.0-78.0,,,,,1038.0,,,arrowright,photo (left arrow)&emsp;&emsp;&emsp;&emsp;drawing (right arrow),perceptual,3000.0,,/static/object_pics/drawing_sea/shark.jpg,7000.0,animate,drawing,1447.3243084465819,True,,MEM,MEM_0059,2022-12-08 21:49:30
,visual-trial,79,489052,0.0-79.0,,,,,679.0,,,arrowleft,photo (left arrow)&emsp;&emsp;&emsp;&emsp;drawing (right arrow),perceptual,3000.0,,/static/object_pics/picture_fruit/grapes.jpg,7000.0,inanimate,photo,1283.0843717704377,True,,MEM,MEM_0059,2022-12-08 21:49:30
,visual-trial,80,493637,0.0-80.0,,,,,632.0,,,arrowleft,photo (left arrow)&emsp;&emsp;&emsp;&emsp;drawing (right arrow),perceptual,3000.0,,/static/object_pics/picture_insect/cockroach.jpg,7000.0,animate,photo,936.3843599804851,True,,MEM,MEM_0059,2022-12-08 21:49:30
,visual-trial,81,497864,0.0-81.0,,,,,547.0,,,arrowright,photo (left arrow)&emsp;&emsp;&emsp;&emsp;drawing (right arrow),perceptual,3000.0,,/static/object_pics/drawing_veggie/cauliflower.jpg,7000.0,inanimate,drawing,649.4726545885352,True,,MEM,MEM_0059,2022-12-08 21:49:30
,visual-trial,82,502953,0.0-82.0,,,,,1221.0,,,arrowright,animate (left arrow)&emsp;&emsp;&emsp;&emsp;inanimate (right arrow),semantic,3000.0,,/static/object_pics/picture_electronic/toaster.jpg,7000.0,inanimate,photo,851.6843411833681,True,,MEM,MEM_0059,2022-12-08 21:49:30
,visual-trial,83,507677,0.0-83.0,,,,,714.0,,,arrowright,photo (left arrow)&emsp;&emsp;&emsp;&emsp;drawing (right arrow),perceptual,3000.0,,/static/object_pics/drawing_clothe/scarf.jpg,7000.0,inanimate,drawing,999.1694705341208,True,,MEM,MEM_0059,2022-12-08 21:49:30
,visual-trial,84,512380,0.0-84.0,,,,,831.0,,,arrowleft,photo (left arrow)&emsp;&emsp;&emsp;&emsp;drawing (right arrow),perceptual,3000.0,,/static/object_pics/picture_electronic/phone.jpg,7000.0,inanimate,photo,855.2867766601233,True,,MEM,MEM_0059,2022-12-08 21:49:30
,visual-trial,85,517376,0.0-85.0,,,,,949.0,,,arrowleft,animate (left arrow)&emsp;&emsp;&emsp;&emsp;inanimate (right arrow),semantic,3000.0,,/static/object_pics/drawing_bird/peacock.jpg,7000.0,animate,drawing,1038.0614607201378,True,,MEM,MEM_0059,2022-12-08 21:49:30
,visual-trial,86,521704,0.0-86.0,,,,,740.0,,,arrowleft,photo (left arrow)&emsp;&emsp;&emsp;&emsp;drawing (right arrow),perceptual,3000.0,,/static/object_pics/picture_insect/grasshopper.jpg,7000.0,animate,photo,576.3208571658938,True,,MEM,MEM_0059,2022-12-08 21:49:30
,visual-trial,87,527112,0.0-87.0,,,,,924.0,,,arrowright,photo (left arrow)&emsp;&emsp;&emsp;&emsp;drawing (right arrow),perceptual,3000.0,,/static/object_pics/drawing_bird/vulture.jpg,7000.0,animate,drawing,1468.1478058617122,True,,MEM,MEM_0059,2022-12-08 21:49:30
,visual-trial,88,531828,0.0-88.0,,,,,736.0,,,arrowleft,animate (left arrow)&emsp;&emsp;&emsp;&emsp;inanimate (right arrow),semantic,3000.0,,/static/object_pics/picture_electronic/microphone.jpg,7000.0,inanimate,photo,964.4244400364842,False,,MEM,MEM_0059,2022-12-08 21:49:30
,visual-trial,89,536872,0.0-89.0,,,,,1075.0,,,arrowleft,photo (left arrow)&emsp;&emsp;&emsp;&emsp;drawing (right arrow),perceptual,3000.0,,/static/object_pics/picture_electronic/handmixer.jpg,7000.0,inanimate,photo,951.9518551229609,True,,MEM,MEM_0059,2022-12-08 21:49:30
,visual-trial,90,541746,0.0-90.0,,,,,911.0,,,arrowright,photo (left arrow)&emsp;&emsp;&emsp;&emsp;drawing (right arrow),perceptual,3000.0,,/static/object_pics/drawing_sea/starfish.jpg,7000.0,animate,drawing,949.6884896822351,True,,MEM,MEM_0059,2022-12-08 21:49:30
,visual-trial,91,546850,0.0-91.0,,,,,1239.0,,,arrowleft,animate (left arrow)&emsp;&emsp;&emsp;&emsp;inanimate (right arrow),semantic,3000.0,,/static/object_pics/picture_mammal/elephant.jpg,7000.0,animate,photo,853.2656853827514,True,,MEM,MEM_0059,2022-12-08 21:49:30
,visual-trial,92,552015,0.0-92.0,,,,,730.0,,,arrowright,photo (left arrow)&emsp;&emsp;&emsp;&emsp;drawing (right arrow),perceptual,3000.0,,/static/object_pics/drawing_clothe/dress.jpg,7000.0,inanimate,drawing,1417.4054580113834,True,,MEM,MEM_0059,2022-12-08 21:49:30
,visual-trial,93,556335,0.0-93.0,,,,,546.0,,,arrowright,photo (left arrow)&emsp;&emsp;&emsp;&emsp;drawing (right arrow),perceptual,3000.0,,/static/object_pics/drawing_clothe/football sneaker.jpg,7000.0,inanimate,drawing,761.7565336234597,True,,MEM,MEM_0059,2022-12-08 21:49:30
,visual-trial,94,561118,0.0-94.0,,,,,1177.0,,,arrowleft,animate (left arrow)&emsp;&emsp;&emsp;&emsp;inanimate (right arrow),semantic,3000.0,,/static/object_pics/drawing_sea/jellyfish.jpg,7000.0,animate,drawing,592.6083020969335,True,,MEM,MEM_0059,2022-12-08 21:49:30
,visual-trial,95,566333,0.0-95.0,,,,,737.0,,,arrowright,photo (left arrow)&emsp;&emsp;&emsp;&emsp;drawing (right arrow),perceptual,3000.0,,/static/object_pics/drawing_clothe/glasses.jpg,7000.0,inanimate,drawing,1466.9812485725197,True,,MEM,MEM_0059,2022-12-08 21:49:30
,visual-trial,96,571637,0.0-96.0,,,,,833.0,,,arrowright,animate (left arrow)&emsp;&emsp;&emsp;&emsp;inanimate (right arrow),semantic,3000.0,,/static/object_pics/drawing_veggie/onions.jpg,7000.0,inanimate,drawing,1457.0647576974393,True,,MEM,MEM_0059,2022-12-08 21:49:30
,visual-trial,97,576394,0.0-97.0,,,,,1014.0,,,arrowleft,photo (left arrow)&emsp;&emsp;&emsp;&emsp;drawing (right arrow),perceptual,3000.0,,/static/object_pics/picture_insect/ant.jpg,7000.0,animate,photo,720.5117023501257,True,,MEM,MEM_0059,2022-12-08 21:49:30
,visual-trial,98,581601,0.0-98.0,,,,,724.0,,,arrowleft,animate (left arrow)&emsp;&emsp;&emsp;&emsp;inanimate (right arrow),semantic,3000.0,,/static/object_pics/drawing_sea/crab.jpg,7000.0,animate,drawing,1467.4508845709838,True,,MEM,MEM_0059,2022-12-08 21:49:30
,visual-trial,99,587455,0.0-99.0,,,,,1626.0,,,arrowleft,animate (left arrow)&emsp;&emsp;&emsp;&emsp;inanimate (right arrow),semantic,3000.0,,/static/object_pics/picture_mammal/lion.jpg,7000.0,animate,photo,1217.4958551550014,True,,MEM,MEM_0059,2022-12-08 21:49:30
,visual-trial,100,592029,0.0-100.0,,,,,808.0,,,arrowleft,animate (left arrow)&emsp;&emsp;&emsp;&emsp;inanimate (right arrow),semantic,3000.0,,/static/object_pics/drawing_bird/turkey.jpg,7000.0,animate,drawing,756.5209873363206,True,,MEM,MEM_0059,2022-12-08 21:49:30
,visual-trial,101,596339,0.0-101.0,,,,,703.0,,,arrowleft,animate (left arrow)&emsp;&emsp;&emsp;&emsp;inanimate (right arrow),semantic,3000.0,,/static/object_pics/drawing_bird/pigeon.jpg,7000.0,animate,drawing,591.149673483387,True,,MEM,MEM_0059,2022-12-08 21:49:30
,visual-trial,102,601021,0.0-102.0,,,,,687.0,,,arrowleft,animate (left arrow)&emsp;&emsp;&emsp;&emsp;inanimate (right arrow),semantic,3000.0,,/static/object_pics/picture_mammal/giraffe.jpg,7000.0,animate,photo,972.7275594965397,True,,MEM,MEM_0059,2022-12-08 21:49:30
,visual-trial,103,606263,0.0-103.0,,,,,795.0,,,arrowleft,animate (left arrow)&emsp;&emsp;&emsp;&emsp;inanimate (right arrow),semantic,3000.0,,/static/object_pics/drawing_sea/seaturtle.jpg,7000.0,animate,drawing,1436.3443264252116,True,,MEM,MEM_0059,2022-12-08 21:49:30
,visual-trial,104,612043,0.0-104.0,,,,,1335.0,,,arrowright,animate (left arrow)&emsp;&emsp;&emsp;&emsp;inanimate (right arrow),semantic,3000.0,,/static/object_pics/drawing_veggie/potato.jpg,7000.0,inanimate,drawing,1433.9237779586597,True,,MEM,MEM_0059,2022-12-08 21:49:30
,visual-trial,105,616622,0.0-105.0,,,,,1042.0,,,arrowleft,photo (left arrow)&emsp;&emsp;&emsp;&emsp;drawing (right arrow),perceptual,3000.0,,/static/object_pics/picture_insect/ladybug.jpg,7000.0,animate,photo,525.4435567814793,True,,MEM,MEM_0059,2022-12-08 21:49:30
,visual-trial,106,621526,0.0-106.0,,,,,1001.0,,,arrowleft,animate (left arrow)&emsp;&emsp;&emsp;&emsp;inanimate (right arrow),semantic,3000.0,,/static/object_pics/picture_insect/centipede.jpg,7000.0,animate,photo,879.09418745219,True,,MEM,MEM_0059,2022-12-08 21:49:30
,visual-trial,107,626534,0.0-107.0,,,,,1386.0,,,arrowleft,animate (left arrow)&emsp;&emsp;&emsp;&emsp;inanimate (right arrow),semantic,3000.0,,/static/object_pics/drawing_bird/canary.jpg,7000.0,animate,drawing,599.7700085965521,True,,MEM,MEM_0059,2022-12-08 21:49:30
,html-keyboard-response,108,631105,0.0-108.0,,,,,4570.0,"
        <p>In that last set of trials, you were correct 97% of the time.</p>
        <p>Feel free to take a brief break. In the next set of trials, you will continue with the same task.
        The instructions are displayed below, in case you need a refresher.
        Press the space bar when you are ready to continue.</p>
        <p>In this task, you will see a series of objects. On some trials, your job is to determine
        whether the object shown is a color photograph or a line drawing. On other trials, your job
        is to determine whether the object represented is animate or inanimate.

        <br><br>
        You will know which response to make depending on the initial display, which will say
        ""animate / inanimate"" or ""photo / drawing"".
        <br>
        You will be able to use the left arrow key to report animate/photo and the right arrow key to report inanimate/drawing.
        <br>
        Please respond as quickly as possible, and use your dominant hand to make your responses.
        <br><br>
        You will be able to use the left arrow key to report animate/photo and the right arrow key to report inanimate/drawing.
        <br><br>
        <img src=""/static/instructions_pics/visual_pic.png"" height=""300px"">
        <br>
        In the example in the top row, the correct response is animate (left arrow key). In the example in the bottom row, the correct response is photo (left arrow key).
        <br>
        <br>When you are ready to begin, press the space bar.</p>", ,,,,,,,,,,,,,MEM,MEM_0059,2022-12-08 21:49:30
,visual-trial,109,635956,0.0-109.0,,,,,1040.0,,,arrowleft,photo (left arrow)&emsp;&emsp;&emsp;&emsp;drawing (right arrow),perceptual,3000.0,,/static/object_pics/picture_mammal/gorilla.jpg,7000.0,animate,photo,794.3220380081739,True,,MEM,MEM_0059,2022-12-08 21:49:30
,visual-trial,110,640576,0.0-110.0,,,,,788.0,,,arrowleft,animate (left arrow)&emsp;&emsp;&emsp;&emsp;inanimate (right arrow),semantic,3000.0,,/static/object_pics/drawing_bird/flamingo.jpg,7000.0,animate,drawing,819.4116368375281,True,,MEM,MEM_0059,2022-12-08 21:49:30
,visual-trial,111,645464,0.0-111.0,,,,,820.0,,,arrowright,animate (left arrow)&emsp;&emsp;&emsp;&emsp;inanimate (right arrow),semantic,3000.0,,/static/object_pics/drawing_clothe/sock.jpg,7000.0,inanimate,drawing,1044.1842758225598,True,,MEM,MEM_0059,2022-12-08 21:49:30
,visual-trial,112,650583,0.0-112.0,,,,,794.0,,,arrowleft,photo (left arrow)&emsp;&emsp;&emsp;&emsp;drawing (right arrow),perceptual,3000.0,,/static/object_pics/picture_insect/fly.jpg,7000.0,animate,photo,1308.0194091042927,True,,MEM,MEM_0059,2022-12-08 21:49:30
,visual-trial,113,655076,0.0-113.0,,,,,935.0,,,arrowleft,animate (left arrow)&emsp;&emsp;&emsp;&emsp;inanimate (right arrow),semantic,3000.0,,/static/object_pics/picture_mammal/wolf.jpg,7000.0,animate,photo,547.808443037833,True,,MEM,MEM_0059,2022-12-08 21:49:30
,visual-trial,114,659275,0.0-114.0,,,,,664.0,,,arrowright,photo (left arrow)&emsp;&emsp;&emsp;&emsp;drawing (right arrow),perceptual,3000.0,,/static/object_pics/drawing_veggie/pumpkin.jpg,7000.0,inanimate,drawing,520.7073426172589,True,,MEM,MEM_0059,2022-12-08 21:49:30
,visual-trial,115,664446,0.0-115.0,,,,,810.0,,,arrowright,animate (left arrow)&emsp;&emsp;&emsp;&emsp;inanimate (right arrow),semantic,3000.0,,/static/object_pics/drawing_clothe/slipper.jpg,7000.0,inanimate,drawing,1347.0579169969737,True,,MEM,MEM_0059,2022-12-08 21:49:30
,visual-trial,116,669047,0.0-116.0,,,,,1012.0,,,arrowright,animate (left arrow)&emsp;&emsp;&emsp;&emsp;inanimate (right arrow),semantic,3000.0,,/static/object_pics/picture_fruit/apricot.jpg,7000.0,inanimate,photo,578.0969627296406,True,,MEM,MEM_0059,2022-12-08 21:49:30
,visual-trial,117,673533,0.0-117.0,,,,,833.0,,,arrowleft,photo (left arrow)&emsp;&emsp;&emsp;&emsp;drawing (right arrow),perceptual,3000.0,,/static/object_pics/picture_mammal/kangaroo.jpg,7000.0,animate,photo,642.8836508175694,True,,MEM,MEM_0059,2022-12-08 21:49:30
,visual-trial,118,678930,0.0-118.0,,,,,909.0,,,arrowright,photo (left arrow)&emsp;&emsp;&emsp;&emsp;drawing (right arrow),perceptual,3000.0,,/static/object_pics/drawing_bird/duck.jpg,7000.0,animate,drawing,1474.4046694115864,True,,MEM,MEM_0059,2022-12-08 21:49:30
,visual-trial,119,683282,0.0-119.0,,,,,812.0,,,arrowright,photo (left arrow)&emsp;&emsp;&emsp;&emsp;drawing (right arrow),perceptual,3000.0,,/static/object_pics/drawing_clothe/hoodie.jpg,7000.0,inanimate,drawing,529.7154013489036,True,,MEM,MEM_0059,2022-12-08 21:49:30
,visual-trial,120,688084,0.0-120.0,,,,,687.0,,,arrowleft,animate (left arrow)&emsp;&emsp;&emsp;&emsp;inanimate (right arrow),semantic,3000.0,,/static/object_pics/picture_mammal/rabbit.jpg,7000.0,animate,photo,1102.2308341967714,True,,MEM,MEM_0059,2022-12-08 21:49:30
,visual-trial,121,692970,0.0-121.0,,,,,653.0,,,arrowright,animate (left arrow)&emsp;&emsp;&emsp;&emsp;inanimate (right arrow),semantic,3000.0,,/static/object_pics/drawing_clothe/gloves.jpg,7000.0,inanimate,drawing,1217.9287869853524,True,,MEM,MEM_0059,2022-12-08 21:49:30
,visual-trial,122,698109,0.0-122.0,,,,,848.0,,,arrowright,photo (left arrow)&emsp;&emsp;&emsp;&emsp;drawing (right arrow),perceptual,3000.0,,/static/object_pics/drawing_bird/ostrich.jpg,7000.0,animate,drawing,1274.1076852146275,True,,MEM,MEM_0059,2022-12-08 21:49:30
,visual-trial,123,702453,0.0-123.0,,,,,768.0,,,arrowright,photo (left arrow)&emsp;&emsp;&emsp;&emsp;drawing (right arrow),perceptual,3000.0,,/static/object_pics/drawing_bird/hummingbird.jpg,7000.0,animate,drawing,560.1167075841695,True,,MEM,MEM_0059,2022-12-08 21:49:30
,visual-trial,124,707135,0.0-124.0,,,,,818.0,,,arrowleft,animate (left arrow)&emsp;&emsp;&emsp;&emsp;inanimate (right arrow),semantic,3000.0,,/static/object_pics/drawing_sea/swordfish.jpg,7000.0,animate,drawing,849.1167501051013,True,,MEM,MEM_0059,2022-12-08 21:49:30
,visual-trial,125,711736,0.0-125.0,,,,,659.0,,,arrowright,photo (left arrow)&emsp;&emsp;&emsp;&emsp;drawing (right arrow),perceptual,3000.0,,/static/object_pics/drawing_clothe/high heels.jpg,7000.0,inanimate,drawing,926.2478626965747,True,,MEM,MEM_0059,2022-12-08 21:49:30
,visual-trial,126,716574,0.0-126.0,,,,,864.0,,,arrowleft,photo (left arrow)&emsp;&emsp;&emsp;&emsp;drawing (right arrow),perceptual,3000.0,,/static/object_pics/picture_fruit/orange.jpg,7000.0,inanimate,photo,956.9092098267469,True,,MEM,MEM_0059,2022-12-08 21:49:30
,visual-trial,127,721310,0.0-127.0,,,,,648.0,,,arrowleft,animate (left arrow)&emsp;&emsp;&emsp;&emsp;inanimate (right arrow),semantic,3000.0,,/static/object_pics/picture_insect/scorpion.jpg,7000.0,animate,photo,1070.3869517355502,True,,MEM,MEM_0059,2022-12-08 21:49:30
,visual-trial,128,725915,0.0-128.0,,,,,654.0,,,arrowleft,photo (left arrow)&emsp;&emsp;&emsp;&emsp;drawing (right arrow),perceptual,3000.0,,/static/object_pics/picture_fruit/watermelon.jpg,7000.0,inanimate,photo,934.6540615550782,True,,MEM,MEM_0059,2022-12-08 21:49:30
,visual-trial,129,731081,0.0-129.0,,,,,741.0,,,arrowright,animate (left arrow)&emsp;&emsp;&emsp;&emsp;inanimate (right arrow),semantic,3000.0,,/static/object_pics/picture_electronic/camera.jpg,7000.0,inanimate,photo,1412.5816919242209,True,,MEM,MEM_0059,2022-12-08 21:49:30
,visual-trial,130,736596,0.0-130.0,,,,,1000.0,,,arrowleft,animate (left arrow)&emsp;&emsp;&emsp;&emsp;inanimate (right arrow),semantic,3000.0,,/static/object_pics/picture_insect/spider.jpg,7000.0,animate,photo,1498.4545080251096,True,,MEM,MEM_0059,2022-12-08 21:49:30
,visual-trial,131,741279,0.0-131.0,,,,,851.0,,,arrowright,animate (left arrow)&emsp;&emsp;&emsp;&emsp;inanimate (right arrow),semantic,3000.0,,/static/object_pics/drawing_veggie/asparagus.jpg,7000.0,inanimate,drawing,818.1159829041846,True,,MEM,MEM_0059,2022-12-08 21:49:30
,visual-trial,132,746186,0.0-132.0,,,,,662.0,,,arrowleft,animate (left arrow)&emsp;&emsp;&emsp;&emsp;inanimate (right arrow),semantic,3000.0,,/static/object_pics/picture_mammal/bison.jpg,7000.0,animate,photo,1231.782088865651,True,,MEM,MEM_0059,2022-12-08 21:49:30
,visual-trial,133,750522,0.0-133.0,,,,,678.0,,,arrowright,photo (left arrow)&emsp;&emsp;&emsp;&emsp;drawing (right arrow),perceptual,3000.0,,/static/object_pics/drawing_sea/octopus.jpg,7000.0,animate,drawing,646.8728556048831,True,,MEM,MEM_0059,2022-12-08 21:49:30
,visual-trial,134,755295,0.0-134.0,,,,,834.0,,,arrowright,photo (left arrow)&emsp;&emsp;&emsp;&emsp;drawing (right arrow),perceptual,3000.0,,/static/object_pics/drawing_sea/eel.jpg,7000.0,animate,drawing,923.4515366415026,True,,MEM,MEM_0059,2022-12-08 21:49:30
,visual-trial,135,759618,0.0-135.0,,,,,550.0,,,arrowright,photo (left arrow)&emsp;&emsp;&emsp;&emsp;drawing (right arrow),perceptual,3000.0,,/static/object_pics/drawing_bird/hen.jpg,7000.0,animate,drawing,758.0438907919709,True,,MEM,MEM_0059,2022-12-08 21:49:30
,visual-trial,136,764839,0.0-136.0,,,,,708.0,,,arrowleft,photo (left arrow)&emsp;&emsp;&emsp;&emsp;drawing (right arrow),perceptual,3000.0,,/static/object_pics/picture_fruit/apple.jpg,7000.0,inanimate,photo,1499.2246411952938,True,,MEM,MEM_0059,2022-12-08 21:49:30
,visual-trial,137,769538,0.0-137.0,,,,,829.0,,,arrowleft,animate (left arrow)&emsp;&emsp;&emsp;&emsp;inanimate (right arrow),semantic,3000.0,,/static/object_pics/drawing_sea/pufferfish.jpg,7000.0,animate,drawing,858.3837700279881,True,,MEM,MEM_0059,2022-12-08 21:49:30
,visual-trial,138,774564,0.0-138.0,,,,,743.0,,,arrowright,photo (left arrow)&emsp;&emsp;&emsp;&emsp;drawing (right arrow),perceptual,3000.0,,/static/object_pics/drawing_bird/parrot.jpg,7000.0,animate,drawing,1266.5348769913185,True,,MEM,MEM_0059,2022-12-08 21:49:30
,visual-trial,139,779263,0.0-139.0,,,,,1154.0,,,arrowright,animate (left arrow)&emsp;&emsp;&emsp;&emsp;inanimate (right arrow),semantic,3000.0,,/static/object_pics/drawing_veggie/aubergine.jpg,7000.0,inanimate,drawing,528.7744518593918,True,,MEM,MEM_0059,2022-12-08 21:49:30
,visual-trial,140,784360,0.0-140.0,,,,,1540.0,,,arrowright,photo (left arrow)&emsp;&emsp;&emsp;&emsp;drawing (right arrow),perceptual,3000.0,,/static/object_pics/drawing_veggie/pepper.jpg,7000.0,inanimate,drawing,545.8119850888332,True,,MEM,MEM_0059,2022-12-08 21:49:30
,html-keyboard-response,141,791345,0.0-141.0,,,,,6985.0,"
      <p>Thank you for your participation!</p>
      The goal of this study is to replicate previous findings that the timing of responses in memory-dependent tasks
      is rhythmic in nature (compared to the timing of responses in memory-independent tasks).
      You performed the memory-independent tasks in this study.
      <br>
      Your participation will allow us to better understand how memory works.
      Please do not share this information with other potential participants.
      <br>
      Press the space bar to continue.</p>", ,,,,,,,,,,,,,MEM,MEM_0059,2022-12-08 21:49:30
