success,trial_type,trial_index,time_elapsed,internal_node_id,timeout,failed_images,failed_audio,failed_video,rt,stimulus,response,key,instruction,instruction_class,instruction_duration,prompt,object,object_duration,animacy,style,jitter,accurate,question_order,exp,subjectId,date
True,fullscreen,0,2685,0.0-0.0,,,,,,,,,,,,,,,,,,,,MEM,MEM_0058,2022-12-08 21:49:34
True,preload,1,29647,0.0-1.0,False,[],[],[],,,,,,,,,,,,,,,,MEM,MEM_0058,2022-12-08 21:49:34
,html-keyboard-response,2,50828,0.0-2.0,,,,,21180.0,"
      <p>In this task, you will see a series of objects. On some trials, your job is to determine
      whether the object shown is a color photograph or a line drawing. On other trials, your job
      is to determine whether the object represented is animate or inanimate.

      <br><br>
      You will know which response to make depending on the initial display, which will say
      ""animate / inanimate"" or ""photo / drawing"".
      <br>
      <br>
      You will be able to use the left arrow key to report animate/photo and the right arrow key to report inanimate/drawing.
      <br>
      Please respond as quickly as possible, and use your dominant hand to make your responses.
      <br><br>
      <img src=""/static/instructions_pics/visual_pic.png"" height=""300px"">
      <br>
      In the example in the top row, the correct response is animate (left arrow key). In the example in the bottom row, the correct response is photo (left arrow key).
      <br>
      <br>You will first do some practice trials. When you are ready to begin, press the space bar.</p>", ,,,,,,,,,,,,,MEM,MEM_0058,2022-12-08 21:49:34
,visual-trial,3,55951,0.0-3.0,,,,,908.0,,,arrowleft,animate (left arrow)&emsp;&emsp;&emsp;&emsp;inanimate (right arrow),semantic,3000.0,,/static/for_instructions/object_pics/drawing_bird/heron.jpg,7000.0,animate,drawing,1184.3424008713491,True,,MEM,MEM_0058,2022-12-08 21:49:34
,visual-trial,4,61838,0.0-4.0,,,,,1631.0,,,arrowleft,photo (left arrow)&emsp;&emsp;&emsp;&emsp;drawing (right arrow),perceptual,3000.0,,/static/for_instructions/object_pics/picture_electronic/flashlight.jpg,7000.0,inanimate,photo,1246.748314480331,True,,MEM,MEM_0058,2022-12-08 21:49:34
,visual-trial,5,66826,0.0-5.0,,,,,1063.0,,,arrowright,animate (left arrow)&emsp;&emsp;&emsp;&emsp;inanimate (right arrow),semantic,3000.0,,/static/for_instructions/object_pics/drawing_clothe/hockey helmet.jpg,7000.0,inanimate,drawing,909.5173380770964,True,,MEM,MEM_0058,2022-12-08 21:49:34
,visual-trial,6,71963,0.0-6.0,,,,,1203.0,,,arrowleft,photo (left arrow)&emsp;&emsp;&emsp;&emsp;drawing (right arrow),perceptual,3000.0,,/static/for_instructions/object_pics/picture_veggie/avocado.jpg,7000.0,inanimate,photo,923.926327696439,True,,MEM,MEM_0058,2022-12-08 21:49:34
,survey-multi-choice,7,84822,0.0-7.0-0.0,,,,,12855.0,,"{'Style': 'True', 'Animacy': 'True'}",,,,,,,,,,,,"[0, 1]",MEM,MEM_0058,2022-12-08 21:49:34
,html-keyboard-response,8,88282,0.0-8.0,,,,,3459.0,"
      <p>Great job! Now you'll continue onto doing the main task.
      You will have the opportunity to take brief breaks at various points.
      Good luck!<br>Press the space bar to continue.</p>", ,,,,,,,,,,,,,MEM,MEM_0058,2022-12-08 21:49:34
True,fullscreen,9,92159,0.0-9.0,,,,,,,,,,,,,,,,,,,,MEM,MEM_0058,2022-12-08 21:49:34
,visual-trial,10,97262,0.0-10.0,,,,,880.0,,,arrowright,animate (left arrow)&emsp;&emsp;&emsp;&emsp;inanimate (right arrow),semantic,3000.0,,/static/object_pics/picture_veggie/pumpkin.jpg,7000.0,inanimate,photo,1205.7323660336751,True,,MEM,MEM_0058,2022-12-08 21:49:34
,visual-trial,11,101446,0.0-11.0,,,,,603.0,,,arrowright,photo (left arrow)&emsp;&emsp;&emsp;&emsp;drawing (right arrow),perceptual,3000.0,,/static/object_pics/drawing_fruit/grapes.jpg,7000.0,inanimate,drawing,554.5246898096841,True,,MEM,MEM_0058,2022-12-08 21:49:34
,visual-trial,12,105950,0.0-12.0,,,,,831.0,,,arrowright,photo (left arrow)&emsp;&emsp;&emsp;&emsp;drawing (right arrow),perceptual,3000.0,,/static/object_pics/drawing_mammal/wolf.jpg,7000.0,animate,drawing,669.3977244652457,True,,MEM,MEM_0058,2022-12-08 21:49:34
,visual-trial,13,110566,0.0-13.0,,,,,723.0,,,arrowright,photo (left arrow)&emsp;&emsp;&emsp;&emsp;drawing (right arrow),perceptual,3000.0,,/static/object_pics/drawing_fruit/orange.jpg,7000.0,inanimate,drawing,865.5183387255777,True,,MEM,MEM_0058,2022-12-08 21:49:34
,visual-trial,14,115527,0.0-14.0,,,,,603.0,,,arrowright,photo (left arrow)&emsp;&emsp;&emsp;&emsp;drawing (right arrow),perceptual,3000.0,,/static/object_pics/drawing_sea/eel.jpg,7000.0,animate,drawing,1349.903200176312,True,,MEM,MEM_0058,2022-12-08 21:49:34
,visual-trial,15,120207,0.0-15.0,,,,,666.0,,,arrowright,photo (left arrow)&emsp;&emsp;&emsp;&emsp;drawing (right arrow),perceptual,3000.0,,/static/object_pics/drawing_mammal/camel.jpg,7000.0,animate,drawing,1001.6780711813142,True,,MEM,MEM_0058,2022-12-08 21:49:34
,visual-trial,16,125159,0.0-16.0,,,,,559.0,,,arrowleft,photo (left arrow)&emsp;&emsp;&emsp;&emsp;drawing (right arrow),perceptual,3000.0,,/static/object_pics/picture_bird/eagle.jpg,7000.0,animate,photo,1368.6520214814896,True,,MEM,MEM_0058,2022-12-08 21:49:34
,visual-trial,17,130323,0.0-17.0,,,,,725.0,,,arrowright,photo (left arrow)&emsp;&emsp;&emsp;&emsp;drawing (right arrow),perceptual,3000.0,,/static/object_pics/drawing_clothe/slipper.jpg,7000.0,inanimate,drawing,1425.3564659331573,True,,MEM,MEM_0058,2022-12-08 21:49:34
,visual-trial,18,136251,0.0-18.0,,,,,1643.0,,,arrowright,animate (left arrow)&emsp;&emsp;&emsp;&emsp;inanimate (right arrow),semantic,3000.0,,/static/object_pics/drawing_fruit/cherry.jpg,7000.0,inanimate,drawing,1261.625546421103,True,,MEM,MEM_0058,2022-12-08 21:49:34
,visual-trial,19,141418,0.0-19.0,,,,,1164.0,,,arrowright,animate (left arrow)&emsp;&emsp;&emsp;&emsp;inanimate (right arrow),semantic,3000.0,,/static/object_pics/drawing_clothe/scarf.jpg,7000.0,inanimate,drawing,983.8550569507981,True,,MEM,MEM_0058,2022-12-08 21:49:34
,visual-trial,20,146466,0.0-20.0,,,,,978.0,,,arrowright,animate (left arrow)&emsp;&emsp;&emsp;&emsp;inanimate (right arrow),semantic,3000.0,,/static/object_pics/picture_electronic/coffee maker.jpg,7000.0,inanimate,photo,1055.800685139623,True,,MEM,MEM_0058,2022-12-08 21:49:34
,visual-trial,21,152458,0.0-21.0,,,,,1822.0,,,arrowleft,photo (left arrow)&emsp;&emsp;&emsp;&emsp;drawing (right arrow),perceptual,3000.0,,/static/object_pics/picture_veggie/cucumber.jpg,7000.0,inanimate,photo,1159.7910863066631,True,,MEM,MEM_0058,2022-12-08 21:49:34
,visual-trial,22,157295,0.0-22.0,,,,,1124.0,,,arrowright,photo (left arrow)&emsp;&emsp;&emsp;&emsp;drawing (right arrow),perceptual,3000.0,,/static/object_pics/drawing_clothe/football sneaker.jpg,7000.0,inanimate,drawing,687.3671650552792,True,,MEM,MEM_0058,2022-12-08 21:49:34
,visual-trial,23,162030,0.0-23.0,,,,,978.0,,,arrowleft,animate (left arrow)&emsp;&emsp;&emsp;&emsp;inanimate (right arrow),semantic,3000.0,,/static/object_pics/picture_bird/duck.jpg,7000.0,animate,photo,734.4457815935623,True,,MEM,MEM_0058,2022-12-08 21:49:34
,visual-trial,24,168119,0.0-24.0,,,,,1715.0,,,arrowleft,animate (left arrow)&emsp;&emsp;&emsp;&emsp;inanimate (right arrow),semantic,3000.0,,/static/object_pics/picture_bird/flamingo.jpg,7000.0,animate,photo,1370.87562114998,True,,MEM,MEM_0058,2022-12-08 21:49:34
,visual-trial,25,172691,0.0-25.0,,,,,673.0,,,arrowright,photo (left arrow)&emsp;&emsp;&emsp;&emsp;drawing (right arrow),perceptual,3000.0,,/static/object_pics/drawing_mammal/rhinoceros.jpg,7000.0,animate,drawing,881.0017136918009,True,,MEM,MEM_0058,2022-12-08 21:49:34
,visual-trial,26,177862,0.0-26.0,,,,,1111.0,,,arrowleft,photo (left arrow)&emsp;&emsp;&emsp;&emsp;drawing (right arrow),perceptual,3000.0,,/static/object_pics/picture_electronic/remote control.jpg,7000.0,inanimate,photo,1054.783837771879,True,,MEM,MEM_0058,2022-12-08 21:49:34
,visual-trial,27,183719,0.0-27.0,,,,,2064.0,,,arrowleft,animate (left arrow)&emsp;&emsp;&emsp;&emsp;inanimate (right arrow),semantic,3000.0,,/static/object_pics/drawing_sea/dolphin.jpg,7000.0,animate,drawing,772.9734365379519,True,,MEM,MEM_0058,2022-12-08 21:49:34
,visual-trial,28,189255,0.0-28.0,,,,,1036.0,,,arrowright,animate (left arrow)&emsp;&emsp;&emsp;&emsp;inanimate (right arrow),semantic,3000.0,,/static/object_pics/drawing_clothe/glasses.jpg,7000.0,inanimate,drawing,1493.7992679606714,True,,MEM,MEM_0058,2022-12-08 21:49:34
,visual-trial,29,194290,0.0-29.0,,,,,959.0,,,arrowleft,animate (left arrow)&emsp;&emsp;&emsp;&emsp;inanimate (right arrow),semantic,3000.0,,/static/object_pics/picture_bird/pelican.jpg,7000.0,animate,photo,1059.707487334495,True,,MEM,MEM_0058,2022-12-08 21:49:34
,visual-trial,30,198986,0.0-30.0,,,,,1136.0,,,arrowright,animate (left arrow)&emsp;&emsp;&emsp;&emsp;inanimate (right arrow),semantic,3000.0,,/static/object_pics/picture_veggie/mushrooms.jpg,7000.0,inanimate,photo,548.3119905075315,True,,MEM,MEM_0058,2022-12-08 21:49:34
,visual-trial,31,204602,0.0-31.0,,,,,1459.0,,,arrowleft,photo (left arrow)&emsp;&emsp;&emsp;&emsp;drawing (right arrow),perceptual,3000.0,,/static/object_pics/drawing_mammal/rabbit.jpg,7000.0,animate,drawing,1134.1716392425956,False,,MEM,MEM_0058,2022-12-08 21:49:34
,visual-trial,32,209515,0.0-32.0,,,,,1214.0,,,arrowleft,photo (left arrow)&emsp;&emsp;&emsp;&emsp;drawing (right arrow),perceptual,3000.0,,/static/object_pics/picture_veggie/carrot.jpg,7000.0,inanimate,photo,686.5102036199446,True,,MEM,MEM_0058,2022-12-08 21:49:34
,visual-trial,33,215823,0.0-33.0,,,,,2032.0,,,arrowright,photo (left arrow)&emsp;&emsp;&emsp;&emsp;drawing (right arrow),perceptual,3000.0,,/static/object_pics/drawing_mammal/elephant.jpg,7000.0,animate,drawing,1262.1650724213005,True,,MEM,MEM_0058,2022-12-08 21:49:34
,visual-trial,34,221390,0.0-34.0,,,,,1493.0,,,arrowright,animate (left arrow)&emsp;&emsp;&emsp;&emsp;inanimate (right arrow),semantic,3000.0,,/static/object_pics/drawing_fruit/kiwi.jpg,7000.0,inanimate,drawing,1053.979389099682,True,,MEM,MEM_0058,2022-12-08 21:49:34
,visual-trial,35,226534,0.0-35.0,,,,,978.0,,,arrowright,animate (left arrow)&emsp;&emsp;&emsp;&emsp;inanimate (right arrow),semantic,3000.0,,/static/object_pics/picture_electronic/radio02.jpg,7000.0,inanimate,photo,1139.5347085080052,True,,MEM,MEM_0058,2022-12-08 21:49:34
,visual-trial,36,231898,0.0-36.0,,,,,1700.0,,,arrowright,photo (left arrow)&emsp;&emsp;&emsp;&emsp;drawing (right arrow),perceptual,3000.0,,/static/object_pics/picture_veggie/corn.jpg,7000.0,inanimate,photo,643.4255775121344,False,,MEM,MEM_0058,2022-12-08 21:49:34
,visual-trial,37,237394,0.0-37.0,,,,,1392.0,,,arrowright,photo (left arrow)&emsp;&emsp;&emsp;&emsp;drawing (right arrow),perceptual,3000.0,,/static/object_pics/drawing_mammal/gorilla.jpg,7000.0,animate,drawing,1087.7326325838096,True,,MEM,MEM_0058,2022-12-08 21:49:34
,visual-trial,38,242722,0.0-38.0,,,,,1434.0,,,arrowleft,animate (left arrow)&emsp;&emsp;&emsp;&emsp;inanimate (right arrow),semantic,3000.0,,/static/object_pics/drawing_sea/swordfish.jpg,7000.0,animate,drawing,873.6904047680608,True,,MEM,MEM_0058,2022-12-08 21:49:34
,visual-trial,39,248883,0.0-39.0,,,,,2518.0,,,arrowleft,photo (left arrow)&emsp;&emsp;&emsp;&emsp;drawing (right arrow),perceptual,3000.0,,/static/object_pics/picture_veggie/onions.jpg,7000.0,inanimate,photo,619.3075174014218,True,,MEM,MEM_0058,2022-12-08 21:49:34
,visual-trial,40,254410,0.0-40.0,,,,,1819.0,,,arrowright,animate (left arrow)&emsp;&emsp;&emsp;&emsp;inanimate (right arrow),semantic,3000.0,,/static/object_pics/drawing_fruit/coconut.jpg,7000.0,inanimate,drawing,698.2967364093947,True,,MEM,MEM_0058,2022-12-08 21:49:34
,visual-trial,41,259003,0.0-41.0,,,,,999.0,,,arrowright,animate (left arrow)&emsp;&emsp;&emsp;&emsp;inanimate (right arrow),semantic,3000.0,,/static/object_pics/drawing_fruit/apple.jpg,7000.0,inanimate,drawing,581.7449537757963,True,,MEM,MEM_0058,2022-12-08 21:49:34
,html-keyboard-response,42,299779,0.0-42.0,,,,,40776.0,"
        <p>In that last set of trials, you were correct 94% of the time.</p>
        <p>Feel free to take a brief break. In the next set of trials, you will continue with the same task.
        The instructions are displayed below, in case you need a refresher.
        Press the space bar when you are ready to continue.</p>
        <p>In this task, you will see a series of objects. On some trials, your job is to determine
        whether the object shown is a color photograph or a line drawing. On other trials, your job
        is to determine whether the object represented is animate or inanimate.

        <br><br>
        You will know which response to make depending on the initial display, which will say
        ""animate / inanimate"" or ""photo / drawing"".
        <br>
        You will be able to use the left arrow key to report animate/photo and the right arrow key to report inanimate/drawing.
        <br>
        Please respond as quickly as possible, and use your dominant hand to make your responses.
        <br><br>
        You will be able to use the left arrow key to report animate/photo and the right arrow key to report inanimate/drawing.
        <br><br>
        <img src=""/static/instructions_pics/visual_pic.png"" height=""300px"">
        <br>
        In the example in the top row, the correct response is animate (left arrow key). In the example in the bottom row, the correct response is photo (left arrow key).
        <br>
        <br>When you are ready to begin, press the space bar.</p>", ,,,,,,,,,,,,,MEM,MEM_0058,2022-12-08 21:49:34
,visual-trial,43,304731,0.0-43.0,,,,,1123.0,,,arrowright,animate (left arrow)&emsp;&emsp;&emsp;&emsp;inanimate (right arrow),semantic,3000.0,,/static/object_pics/drawing_clothe/sock.jpg,7000.0,inanimate,drawing,800.3141340417617,True,,MEM,MEM_0058,2022-12-08 21:49:34
,visual-trial,44,309602,0.0-44.0,,,,,1013.0,,,arrowleft,animate (left arrow)&emsp;&emsp;&emsp;&emsp;inanimate (right arrow),semantic,3000.0,,/static/object_pics/drawing_mammal/giraffe.jpg,7000.0,animate,drawing,844.5036497808594,True,,MEM,MEM_0058,2022-12-08 21:49:34
,visual-trial,45,314339,0.0-45.0,,,,,605.0,,,arrowright,animate (left arrow)&emsp;&emsp;&emsp;&emsp;inanimate (right arrow),semantic,3000.0,,/static/object_pics/drawing_clothe/sport t-shirt.jpg,7000.0,inanimate,drawing,1117.8599516042402,True,,MEM,MEM_0058,2022-12-08 21:49:34
,visual-trial,46,319059,0.0-46.0,,,,,755.0,,,arrowleft,photo (left arrow)&emsp;&emsp;&emsp;&emsp;drawing (right arrow),perceptual,3000.0,,/static/object_pics/picture_insect/spider.jpg,7000.0,animate,photo,941.9791057223308,True,,MEM,MEM_0058,2022-12-08 21:49:34
,visual-trial,47,324483,0.0-47.0,,,,,1148.0,,,arrowright,animate (left arrow)&emsp;&emsp;&emsp;&emsp;inanimate (right arrow),semantic,3000.0,,/static/object_pics/picture_electronic/laptop.jpg,7000.0,inanimate,photo,1263.8449775220286,True,,MEM,MEM_0058,2022-12-08 21:49:34
,visual-trial,48,329506,0.0-48.0,,,,,658.0,,,arrowright,animate (left arrow)&emsp;&emsp;&emsp;&emsp;inanimate (right arrow),semantic,3000.0,,/static/object_pics/drawing_clothe/shirt.jpg,7000.0,inanimate,drawing,1354.3940067487465,True,,MEM,MEM_0058,2022-12-08 21:49:34
,visual-trial,49,334334,0.0-49.0,,,,,1020.0,,,arrowleft,photo (left arrow)&emsp;&emsp;&emsp;&emsp;drawing (right arrow),perceptual,3000.0,,/static/object_pics/picture_insect/scorpion.jpg,7000.0,animate,photo,801.3570472879792,True,,MEM,MEM_0058,2022-12-08 21:49:34
,visual-trial,50,339254,0.0-50.0,,,,,1356.0,,,arrowright,photo (left arrow)&emsp;&emsp;&emsp;&emsp;drawing (right arrow),perceptual,3000.0,,/static/object_pics/drawing_clothe/jeans.jpg,7000.0,inanimate,drawing,544.8978008163642,True,,MEM,MEM_0058,2022-12-08 21:49:34
,visual-trial,51,344871,0.0-51.0,,,,,1515.0,,,arrowright,animate (left arrow)&emsp;&emsp;&emsp;&emsp;inanimate (right arrow),semantic,3000.0,,/static/object_pics/picture_electronic/computer mouse.jpg,7000.0,inanimate,photo,1082.3296694391947,True,,MEM,MEM_0058,2022-12-08 21:49:34
,visual-trial,52,349851,0.0-52.0,,,,,1254.0,,,arrowright,photo (left arrow)&emsp;&emsp;&emsp;&emsp;drawing (right arrow),perceptual,3000.0,,/static/object_pics/drawing_fruit/pear.jpg,7000.0,inanimate,drawing,706.5855793246848,True,,MEM,MEM_0058,2022-12-08 21:49:34
,visual-trial,53,354670,0.0-53.0,,,,,1108.0,,,arrowright,animate (left arrow)&emsp;&emsp;&emsp;&emsp;inanimate (right arrow),semantic,3000.0,,/static/object_pics/picture_electronic/gamepad.jpg,7000.0,inanimate,photo,693.8066038614836,True,,MEM,MEM_0058,2022-12-08 21:49:34
,visual-trial,54,360623,0.0-54.0,,,,,2011.0,,,arrowleft,animate (left arrow)&emsp;&emsp;&emsp;&emsp;inanimate (right arrow),semantic,3000.0,,/static/object_pics/picture_insect/centipede.jpg,7000.0,animate,photo,939.1564273284398,True,,MEM,MEM_0058,2022-12-08 21:49:34
,visual-trial,55,366007,0.0-55.0,,,,,1250.0,,,arrowleft,photo (left arrow)&emsp;&emsp;&emsp;&emsp;drawing (right arrow),perceptual,3000.0,,/static/object_pics/picture_electronic/camera.jpg,7000.0,inanimate,photo,1125.3025231920988,True,,MEM,MEM_0058,2022-12-08 21:49:34
,visual-trial,56,370870,0.0-56.0,,,,,1267.0,,,arrowleft,photo (left arrow)&emsp;&emsp;&emsp;&emsp;drawing (right arrow),perceptual,3000.0,,/static/object_pics/picture_veggie/garlic.jpg,7000.0,inanimate,photo,571.0989871905082,True,,MEM,MEM_0058,2022-12-08 21:49:34
,visual-trial,57,375691,0.0-57.0,,,,,1120.0,,,arrowright,photo (left arrow)&emsp;&emsp;&emsp;&emsp;drawing (right arrow),perceptual,3000.0,,/static/object_pics/drawing_mammal/bison.jpg,7000.0,animate,drawing,692.2847427823922,True,,MEM,MEM_0058,2022-12-08 21:49:34
,visual-trial,58,380803,0.0-58.0,,,,,1120.0,,,arrowleft,animate (left arrow)&emsp;&emsp;&emsp;&emsp;inanimate (right arrow),semantic,3000.0,,/static/object_pics/picture_insect/butterfly.jpg,7000.0,animate,photo,976.9546339002738,True,,MEM,MEM_0058,2022-12-08 21:49:34
,visual-trial,59,386074,0.0-59.0,,,,,923.0,,,arrowright,photo (left arrow)&emsp;&emsp;&emsp;&emsp;drawing (right arrow),perceptual,3000.0,,/static/object_pics/drawing_mammal/bull.jpg,7000.0,animate,drawing,1334.0258536852925,True,,MEM,MEM_0058,2022-12-08 21:49:34
,visual-trial,60,391338,0.0-60.0,,,,,931.0,,,arrowright,photo (left arrow)&emsp;&emsp;&emsp;&emsp;drawing (right arrow),perceptual,3000.0,,/static/object_pics/drawing_sea/crab.jpg,7000.0,animate,drawing,1310.0645364107322,True,,MEM,MEM_0058,2022-12-08 21:49:34
,visual-trial,61,396962,0.0-61.0,,,,,1189.0,,,arrowleft,animate (left arrow)&emsp;&emsp;&emsp;&emsp;inanimate (right arrow),semantic,3000.0,,/static/object_pics/picture_insect/fly.jpg,7000.0,animate,photo,1425.4004156011902,True,,MEM,MEM_0058,2022-12-08 21:49:34
,visual-trial,62,401626,0.0-62.0,,,,,928.0,,,arrowright,animate (left arrow)&emsp;&emsp;&emsp;&emsp;inanimate (right arrow),semantic,3000.0,,/static/object_pics/drawing_clothe/high heels.jpg,7000.0,inanimate,drawing,711.2641498666485,True,,MEM,MEM_0058,2022-12-08 21:49:34
,visual-trial,63,406671,0.0-63.0,,,,,1180.0,,,arrowleft,animate (left arrow)&emsp;&emsp;&emsp;&emsp;inanimate (right arrow),semantic,3000.0,,/static/object_pics/picture_bird/canary.jpg,7000.0,animate,photo,856.910166184954,True,,MEM,MEM_0058,2022-12-08 21:49:34
,visual-trial,64,411839,0.0-64.0,,,,,1351.0,,,arrowleft,animate (left arrow)&emsp;&emsp;&emsp;&emsp;inanimate (right arrow),semantic,3000.0,,/static/object_pics/drawing_sea/mantaray.jpg,7000.0,animate,drawing,798.1529778988848,True,,MEM,MEM_0058,2022-12-08 21:49:34
,visual-trial,65,417031,0.0-65.0,,,,,1623.0,,,arrowright,photo (left arrow)&emsp;&emsp;&emsp;&emsp;drawing (right arrow),perceptual,3000.0,,/static/object_pics/drawing_mammal/antelope.jpg,7000.0,animate,drawing,554.6257556240322,True,,MEM,MEM_0058,2022-12-08 21:49:34
,visual-trial,66,421815,0.0-66.0,,,,,907.0,,,arrowleft,photo (left arrow)&emsp;&emsp;&emsp;&emsp;drawing (right arrow),perceptual,3000.0,,/static/object_pics/picture_electronic/satellite dish.jpg,7000.0,inanimate,photo,850.4898895547528,True,,MEM,MEM_0058,2022-12-08 21:49:34
,visual-trial,67,426814,0.0-67.0,,,,,1119.0,,,arrowright,photo (left arrow)&emsp;&emsp;&emsp;&emsp;drawing (right arrow),perceptual,3000.0,,/static/object_pics/drawing_mammal/sheep.jpg,7000.0,animate,drawing,869.7355576260277,True,,MEM,MEM_0058,2022-12-08 21:49:34
,visual-trial,68,432518,0.0-68.0,,,,,1442.0,,,arrowleft,animate (left arrow)&emsp;&emsp;&emsp;&emsp;inanimate (right arrow),semantic,3000.0,,/static/object_pics/drawing_sea/jellyfish.jpg,7000.0,animate,drawing,1256.9029958942729,True,,MEM,MEM_0058,2022-12-08 21:49:34
,visual-trial,69,437991,0.0-69.0,,,,,1214.0,,,arrowleft,animate (left arrow)&emsp;&emsp;&emsp;&emsp;inanimate (right arrow),semantic,3000.0,,/static/object_pics/drawing_sea/shrimp.jpg,7000.0,animate,drawing,1240.393408194375,True,,MEM,MEM_0058,2022-12-08 21:49:34
,visual-trial,70,443186,0.0-70.0,,,,,1159.0,,,arrowright,photo (left arrow)&emsp;&emsp;&emsp;&emsp;drawing (right arrow),perceptual,3000.0,,/static/object_pics/drawing_sea/killer whale.jpg,7000.0,animate,drawing,1019.2794481479368,True,,MEM,MEM_0058,2022-12-08 21:49:34
,visual-trial,71,448611,0.0-71.0,,,,,1179.0,,,arrowleft,animate (left arrow)&emsp;&emsp;&emsp;&emsp;inanimate (right arrow),semantic,3000.0,,/static/object_pics/drawing_sea/piranha.jpg,7000.0,animate,drawing,1227.423465247893,True,,MEM,MEM_0058,2022-12-08 21:49:34
,visual-trial,72,453483,0.0-72.0,,,,,784.0,,,arrowright,photo (left arrow)&emsp;&emsp;&emsp;&emsp;drawing (right arrow),perceptual,3000.0,,/static/object_pics/drawing_clothe/bowtie.jpg,7000.0,inanimate,drawing,1077.2060800658323,True,,MEM,MEM_0058,2022-12-08 21:49:34
,visual-trial,73,457814,0.0-73.0,,,,,737.0,,,arrowleft,animate (left arrow)&emsp;&emsp;&emsp;&emsp;inanimate (right arrow),semantic,3000.0,,/static/object_pics/picture_insect/bumble bee.jpg,7000.0,animate,photo,575.5435012647241,True,,MEM,MEM_0058,2022-12-08 21:49:34
,visual-trial,74,463071,0.0-74.0,,,,,772.0,,,arrowleft,photo (left arrow)&emsp;&emsp;&emsp;&emsp;drawing (right arrow),perceptual,3000.0,,/static/object_pics/picture_veggie/asparagus.jpg,7000.0,inanimate,photo,1476.7477818210787,True,,MEM,MEM_0058,2022-12-08 21:49:34
,html-keyboard-response,75,465223,0.0-75.0,,,,,2151.0,"
        <p>In that last set of trials, you were correct 100% of the time.</p>
        <p>Feel free to take a brief break. In the next set of trials, you will continue with the same task.
        The instructions are displayed below, in case you need a refresher.
        Press the space bar when you are ready to continue.</p>
        <p>In this task, you will see a series of objects. On some trials, your job is to determine
        whether the object shown is a color photograph or a line drawing. On other trials, your job
        is to determine whether the object represented is animate or inanimate.

        <br><br>
        You will know which response to make depending on the initial display, which will say
        ""animate / inanimate"" or ""photo / drawing"".
        <br>
        You will be able to use the left arrow key to report animate/photo and the right arrow key to report inanimate/drawing.
        <br>
        Please respond as quickly as possible, and use your dominant hand to make your responses.
        <br><br>
        You will be able to use the left arrow key to report animate/photo and the right arrow key to report inanimate/drawing.
        <br><br>
        <img src=""/static/instructions_pics/visual_pic.png"" height=""300px"">
        <br>
        In the example in the top row, the correct response is animate (left arrow key). In the example in the bottom row, the correct response is photo (left arrow key).
        <br>
        <br>When you are ready to begin, press the space bar.</p>", ,,,,,,,,,,,,,MEM,MEM_0058,2022-12-08 21:49:34
,visual-trial,76,469910,0.0-76.0,,,,,1067.0,,,arrowleft,animate (left arrow)&emsp;&emsp;&emsp;&emsp;inanimate (right arrow),semantic,3000.0,,/static/object_pics/drawing_sea/octopus.jpg,7000.0,animate,drawing,606.5966165401018,True,,MEM,MEM_0058,2022-12-08 21:49:34
,visual-trial,77,475047,0.0-77.0,,,,,726.0,,,arrowright,animate (left arrow)&emsp;&emsp;&emsp;&emsp;inanimate (right arrow),semantic,3000.0,,/static/object_pics/drawing_clothe/dress.jpg,7000.0,inanimate,drawing,1392.015108479995,True,,MEM,MEM_0058,2022-12-08 21:49:34
,visual-trial,78,479727,0.0-78.0,,,,,1080.0,,,arrowright,animate (left arrow)&emsp;&emsp;&emsp;&emsp;inanimate (right arrow),semantic,3000.0,,/static/object_pics/picture_electronic/printer.jpg,7000.0,inanimate,photo,580.6780458489634,True,,MEM,MEM_0058,2022-12-08 21:49:34
,visual-trial,79,484295,0.0-79.0,,,,,1041.0,,,arrowleft,photo (left arrow)&emsp;&emsp;&emsp;&emsp;drawing (right arrow),perceptual,3000.0,,/static/object_pics/picture_electronic/microphone.jpg,7000.0,inanimate,photo,516.3656414830926,True,,MEM,MEM_0058,2022-12-08 21:49:34
,visual-trial,80,489826,0.0-80.0,,,,,1572.0,,,arrowright,photo (left arrow)&emsp;&emsp;&emsp;&emsp;drawing (right arrow),perceptual,3000.0,,/static/object_pics/drawing_clothe/hoodie.jpg,7000.0,inanimate,drawing,944.748573401065,True,,MEM,MEM_0058,2022-12-08 21:49:34
,visual-trial,81,494978,0.0-81.0,,,,,1018.0,,,arrowright,animate (left arrow)&emsp;&emsp;&emsp;&emsp;inanimate (right arrow),semantic,3000.0,,/static/object_pics/drawing_fruit/strawberry.jpg,7000.0,inanimate,drawing,1105.652860570916,True,,MEM,MEM_0058,2022-12-08 21:49:34
,visual-trial,82,500403,0.0-82.0,,,,,1377.0,,,arrowleft,animate (left arrow)&emsp;&emsp;&emsp;&emsp;inanimate (right arrow),semantic,3000.0,,/static/object_pics/picture_bird/ostrich.jpg,7000.0,animate,photo,1024.1136969038964,True,,MEM,MEM_0058,2022-12-08 21:49:34
,visual-trial,83,505810,0.0-83.0,,,,,1410.0,,,arrowright,photo (left arrow)&emsp;&emsp;&emsp;&emsp;drawing (right arrow),perceptual,3000.0,,/static/object_pics/drawing_fruit/pomegranate.jpg,7000.0,inanimate,drawing,986.4377548689157,True,,MEM,MEM_0058,2022-12-08 21:49:34
,visual-trial,84,511115,0.0-84.0,,,,,1227.0,,,arrowright,photo (left arrow)&emsp;&emsp;&emsp;&emsp;drawing (right arrow),perceptual,3000.0,,/static/object_pics/drawing_fruit/melon.jpg,7000.0,inanimate,drawing,1063.1474569506731,True,,MEM,MEM_0058,2022-12-08 21:49:34
,visual-trial,85,516186,0.0-85.0,,,,,744.0,,,arrowleft,animate (left arrow)&emsp;&emsp;&emsp;&emsp;inanimate (right arrow),semantic,3000.0,,/static/object_pics/picture_bird/peacock.jpg,7000.0,animate,photo,1316.4584144170153,True,,MEM,MEM_0058,2022-12-08 21:49:34
,visual-trial,86,521006,0.0-86.0,,,,,686.0,,,arrowleft,animate (left arrow)&emsp;&emsp;&emsp;&emsp;inanimate (right arrow),semantic,3000.0,,/static/object_pics/picture_bird/owl.jpg,7000.0,animate,photo,1109.3500108843195,True,,MEM,MEM_0058,2022-12-08 21:49:34
,visual-trial,87,525727,0.0-87.0,,,,,832.0,,,arrowleft,animate (left arrow)&emsp;&emsp;&emsp;&emsp;inanimate (right arrow),semantic,3000.0,,/static/object_pics/picture_bird/parrot.jpg,7000.0,animate,photo,867.6973602587609,True,,MEM,MEM_0058,2022-12-08 21:49:34
,visual-trial,88,530518,0.0-88.0,,,,,1132.0,,,arrowleft,animate (left arrow)&emsp;&emsp;&emsp;&emsp;inanimate (right arrow),semantic,3000.0,,/static/object_pics/drawing_sea/seal.jpg,7000.0,animate,drawing,635.5051104899221,True,,MEM,MEM_0058,2022-12-08 21:49:34
,visual-trial,89,535799,0.0-89.0,,,,,967.0,,,arrowleft,animate (left arrow)&emsp;&emsp;&emsp;&emsp;inanimate (right arrow),semantic,3000.0,,/static/object_pics/picture_insect/beetle.jpg,7000.0,animate,photo,1294.9945033730614,True,,MEM,MEM_0058,2022-12-08 21:49:34
,visual-trial,90,540959,0.0-90.0,,,,,784.0,,,arrowright,animate (left arrow)&emsp;&emsp;&emsp;&emsp;inanimate (right arrow),semantic,3000.0,,/static/object_pics/drawing_clothe/tie.jpg,7000.0,inanimate,drawing,1350.635691555034,True,,MEM,MEM_0058,2022-12-08 21:49:34
,visual-trial,91,545970,0.0-91.0,,,,,1182.0,,,arrowleft,animate (left arrow)&emsp;&emsp;&emsp;&emsp;inanimate (right arrow),semantic,3000.0,,/static/object_pics/drawing_mammal/horse.jpg,7000.0,animate,drawing,812.6176783711578,True,,MEM,MEM_0058,2022-12-08 21:49:34
,visual-trial,92,551235,0.0-92.0,,,,,888.0,,,arrowleft,photo (left arrow)&emsp;&emsp;&emsp;&emsp;drawing (right arrow),perceptual,3000.0,,/static/object_pics/picture_veggie/artichoke.jpg,7000.0,inanimate,photo,1353.0912457099025,True,,MEM,MEM_0058,2022-12-08 21:49:34
,visual-trial,93,556899,0.0-93.0,,,,,1464.0,,,arrowleft,animate (left arrow)&emsp;&emsp;&emsp;&emsp;inanimate (right arrow),semantic,3000.0,,/static/object_pics/picture_bird/vulture.jpg,7000.0,animate,photo,1195.193370296271,True,,MEM,MEM_0058,2022-12-08 21:49:34
,visual-trial,94,561379,0.0-94.0,,,,,784.0,,,arrowleft,photo (left arrow)&emsp;&emsp;&emsp;&emsp;drawing (right arrow),perceptual,3000.0,,/static/object_pics/picture_electronic/calculator.jpg,7000.0,inanimate,photo,682.4624430439712,True,,MEM,MEM_0058,2022-12-08 21:49:34
,visual-trial,95,566182,0.0-95.0,,,,,1129.0,,,arrowleft,photo (left arrow)&emsp;&emsp;&emsp;&emsp;drawing (right arrow),perceptual,3000.0,,/static/object_pics/picture_bird/hen.jpg,7000.0,animate,photo,663.3588146084835,True,,MEM,MEM_0058,2022-12-08 21:49:34
,visual-trial,96,571579,0.0-96.0,,,,,941.0,,,arrowright,animate (left arrow)&emsp;&emsp;&emsp;&emsp;inanimate (right arrow),semantic,3000.0,,/static/object_pics/picture_veggie/tomato.jpg,7000.0,inanimate,photo,1440.6824560963003,True,,MEM,MEM_0058,2022-12-08 21:49:34
,visual-trial,97,576694,0.0-97.0,,,,,1006.0,,,arrowright,animate (left arrow)&emsp;&emsp;&emsp;&emsp;inanimate (right arrow),semantic,3000.0,,/static/object_pics/picture_electronic/phone.jpg,7000.0,inanimate,photo,1100.136069921235,True,,MEM,MEM_0058,2022-12-08 21:49:34
,visual-trial,98,581175,0.0-98.0,,,,,924.0,,,arrowleft,photo (left arrow)&emsp;&emsp;&emsp;&emsp;drawing (right arrow),perceptual,3000.0,,/static/object_pics/picture_veggie/cauliflower.jpg,7000.0,inanimate,photo,533.8281717082763,True,,MEM,MEM_0058,2022-12-08 21:49:34
,visual-trial,99,585815,0.0-99.0,,,,,918.0,,,arrowleft,animate (left arrow)&emsp;&emsp;&emsp;&emsp;inanimate (right arrow),semantic,3000.0,,/static/object_pics/picture_bird/hummingbird.jpg,7000.0,animate,photo,704.5902272484714,True,,MEM,MEM_0058,2022-12-08 21:49:34
,visual-trial,100,590614,0.0-100.0,,,,,759.0,,,arrowright,animate (left arrow)&emsp;&emsp;&emsp;&emsp;inanimate (right arrow),semantic,3000.0,,/static/object_pics/drawing_clothe/hat.jpg,7000.0,inanimate,drawing,1011.4051184796256,True,,MEM,MEM_0058,2022-12-08 21:49:34
,visual-trial,101,594951,0.0-101.0,,,,,718.0,,,arrowleft,animate (left arrow)&emsp;&emsp;&emsp;&emsp;inanimate (right arrow),semantic,3000.0,,/static/object_pics/picture_insect/cockroach.jpg,7000.0,animate,photo,589.1965847168092,True,,MEM,MEM_0058,2022-12-08 21:49:34
,visual-trial,102,599842,0.0-102.0,,,,,727.0,,,arrowright,animate (left arrow)&emsp;&emsp;&emsp;&emsp;inanimate (right arrow),semantic,3000.0,,/static/object_pics/drawing_fruit/apricot.jpg,7000.0,inanimate,drawing,1161.9603780811628,True,,MEM,MEM_0058,2022-12-08 21:49:34
,visual-trial,103,604803,0.0-103.0,,,,,793.0,,,arrowleft,animate (left arrow)&emsp;&emsp;&emsp;&emsp;inanimate (right arrow),semantic,3000.0,,/static/object_pics/picture_insect/dragonfly.jpg,7000.0,animate,photo,1148.4224166988042,True,,MEM,MEM_0058,2022-12-08 21:49:34
,visual-trial,104,609370,0.0-104.0,,,,,932.0,,,arrowleft,animate (left arrow)&emsp;&emsp;&emsp;&emsp;inanimate (right arrow),semantic,3000.0,,/static/object_pics/drawing_mammal/lion.jpg,7000.0,animate,drawing,620.7921021980883,True,,MEM,MEM_0058,2022-12-08 21:49:34
,visual-trial,105,613742,0.0-105.0,,,,,791.0,,,arrowleft,animate (left arrow)&emsp;&emsp;&emsp;&emsp;inanimate (right arrow),semantic,3000.0,,/static/object_pics/picture_insect/worm.jpg,7000.0,animate,photo,572.8371156946021,True,,MEM,MEM_0058,2022-12-08 21:49:34
,visual-trial,106,618591,0.0-106.0,,,,,1094.0,,,arrowleft,photo (left arrow)&emsp;&emsp;&emsp;&emsp;drawing (right arrow),perceptual,3000.0,,/static/object_pics/picture_insect/ladybug.jpg,7000.0,animate,photo,744.9769217100365,True,,MEM,MEM_0058,2022-12-08 21:49:34
,visual-trial,107,623311,0.0-107.0,,,,,1011.0,,,arrowleft,photo (left arrow)&emsp;&emsp;&emsp;&emsp;drawing (right arrow),perceptual,3000.0,,/static/object_pics/picture_bird/pigeon.jpg,7000.0,animate,photo,698.4210883910944,True,,MEM,MEM_0058,2022-12-08 21:49:34
,html-keyboard-response,108,627211,0.0-108.0,,,,,3898.0,"
        <p>In that last set of trials, you were correct 100% of the time.</p>
        <p>Feel free to take a brief break. In the next set of trials, you will continue with the same task.
        The instructions are displayed below, in case you need a refresher.
        Press the space bar when you are ready to continue.</p>
        <p>In this task, you will see a series of objects. On some trials, your job is to determine
        whether the object shown is a color photograph or a line drawing. On other trials, your job
        is to determine whether the object represented is animate or inanimate.

        <br><br>
        You will know which response to make depending on the initial display, which will say
        ""animate / inanimate"" or ""photo / drawing"".
        <br>
        You will be able to use the left arrow key to report animate/photo and the right arrow key to report inanimate/drawing.
        <br>
        Please respond as quickly as possible, and use your dominant hand to make your responses.
        <br><br>
        You will be able to use the left arrow key to report animate/photo and the right arrow key to report inanimate/drawing.
        <br><br>
        <img src=""/static/instructions_pics/visual_pic.png"" height=""300px"">
        <br>
        In the example in the top row, the correct response is animate (left arrow key). In the example in the bottom row, the correct response is photo (left arrow key).
        <br>
        <br>When you are ready to begin, press the space bar.</p>", ,,,,,,,,,,,,,MEM,MEM_0058,2022-12-08 21:49:34
,visual-trial,109,631906,0.0-109.0,,,,,1097.0,,,arrowleft,photo (left arrow)&emsp;&emsp;&emsp;&emsp;drawing (right arrow),perceptual,3000.0,,/static/object_pics/picture_electronic/handmixer.jpg,7000.0,inanimate,photo,594.0834245633273,True,,MEM,MEM_0058,2022-12-08 21:49:34
,visual-trial,110,636682,0.0-110.0,,,,,662.0,,,arrowleft,animate (left arrow)&emsp;&emsp;&emsp;&emsp;inanimate (right arrow),semantic,3000.0,,/static/object_pics/picture_bird/toucan.jpg,7000.0,animate,photo,1113.6572611928054,True,,MEM,MEM_0058,2022-12-08 21:49:34
,visual-trial,111,642266,0.0-111.0,,,,,1511.0,,,arrowright,photo (left arrow)&emsp;&emsp;&emsp;&emsp;drawing (right arrow),perceptual,3000.0,,/static/object_pics/drawing_sea/shark.jpg,7000.0,animate,drawing,1061.4012323911338,True,,MEM,MEM_0058,2022-12-08 21:49:34
,visual-trial,112,647875,0.0-112.0,,,,,1386.0,,,arrowright,animate (left arrow)&emsp;&emsp;&emsp;&emsp;inanimate (right arrow),semantic,3000.0,,/static/object_pics/picture_veggie/potato.jpg,7000.0,inanimate,photo,1218.3969511660575,True,,MEM,MEM_0058,2022-12-08 21:49:34
,visual-trial,113,653423,0.0-113.0,,,,,2000.0,,,arrowright,photo (left arrow)&emsp;&emsp;&emsp;&emsp;drawing (right arrow),perceptual,3000.0,,/static/object_pics/drawing_fruit/lemon.jpg,7000.0,inanimate,drawing,529.9486713915371,True,,MEM,MEM_0058,2022-12-08 21:49:34
,visual-trial,114,658510,0.0-114.0,,,,,623.0,,,arrowright,photo (left arrow)&emsp;&emsp;&emsp;&emsp;drawing (right arrow),perceptual,3000.0,,/static/object_pics/drawing_fruit/pineapple.jpg,7000.0,inanimate,drawing,1450.3451279185354,True,,MEM,MEM_0058,2022-12-08 21:49:34
,visual-trial,115,663294,0.0-115.0,,,,,934.0,,,arrowleft,photo (left arrow)&emsp;&emsp;&emsp;&emsp;drawing (right arrow),perceptual,3000.0,,/static/object_pics/picture_veggie/aubergine.jpg,7000.0,inanimate,photo,836.7643944123367,True,,MEM,MEM_0058,2022-12-08 21:49:34
,visual-trial,116,668406,0.0-116.0,,,,,1450.0,,,arrowleft,photo (left arrow)&emsp;&emsp;&emsp;&emsp;drawing (right arrow),perceptual,3000.0,,/static/object_pics/picture_insect/snail.jpg,7000.0,animate,photo,640.0187264583933,True,,MEM,MEM_0058,2022-12-08 21:49:34
,visual-trial,117,673310,0.0-117.0,,,,,1093.0,,,arrowright,animate (left arrow)&emsp;&emsp;&emsp;&emsp;inanimate (right arrow),semantic,3000.0,,/static/object_pics/picture_electronic/toaster.jpg,7000.0,inanimate,photo,803.5300123632076,True,,MEM,MEM_0058,2022-12-08 21:49:34
,visual-trial,118,678235,0.0-118.0,,,,,1051.0,,,arrowleft,photo (left arrow)&emsp;&emsp;&emsp;&emsp;drawing (right arrow),perceptual,3000.0,,/static/object_pics/picture_bird/penguin.jpg,7000.0,animate,photo,868.5907717569064,True,,MEM,MEM_0058,2022-12-08 21:49:34
,visual-trial,119,683763,0.0-119.0,,,,,1051.0,,,arrowleft,photo (left arrow)&emsp;&emsp;&emsp;&emsp;drawing (right arrow),perceptual,3000.0,,/static/object_pics/picture_insect/mosquito.jpg,7000.0,animate,photo,1466.5724133286494,True,,MEM,MEM_0058,2022-12-08 21:49:34
,visual-trial,120,688731,0.0-120.0,,,,,1341.0,,,arrowright,photo (left arrow)&emsp;&emsp;&emsp;&emsp;drawing (right arrow),perceptual,3000.0,,/static/object_pics/drawing_mammal/bear.jpg,7000.0,animate,drawing,608.0061432618722,True,,MEM,MEM_0058,2022-12-08 21:49:34
,visual-trial,121,693294,0.0-121.0,,,,,948.0,,,arrowright,photo (left arrow)&emsp;&emsp;&emsp;&emsp;drawing (right arrow),perceptual,3000.0,,/static/object_pics/drawing_sea/pufferfish.jpg,7000.0,animate,drawing,594.1633634738002,True,,MEM,MEM_0058,2022-12-08 21:49:34
,visual-trial,122,698247,0.0-122.0,,,,,1282.0,,,arrowleft,photo (left arrow)&emsp;&emsp;&emsp;&emsp;drawing (right arrow),perceptual,3000.0,,/static/object_pics/picture_veggie/pepper.jpg,7000.0,inanimate,photo,667.4117616493263,True,,MEM,MEM_0058,2022-12-08 21:49:34
,visual-trial,123,702951,0.0-123.0,,,,,691.0,,,arrowleft,photo (left arrow)&emsp;&emsp;&emsp;&emsp;drawing (right arrow),perceptual,3000.0,,/static/object_pics/picture_electronic/keyboard.jpg,7000.0,inanimate,photo,996.0419857774598,True,,MEM,MEM_0058,2022-12-08 21:49:34
,visual-trial,124,708079,0.0-124.0,,,,,944.0,,,arrowleft,photo (left arrow)&emsp;&emsp;&emsp;&emsp;drawing (right arrow),perceptual,3000.0,,/static/object_pics/picture_bird/turkey.jpg,7000.0,animate,photo,1162.8020393245938,True,,MEM,MEM_0058,2022-12-08 21:49:34
,visual-trial,125,713662,0.0-125.0,,,,,2066.0,,,arrowleft,animate (left arrow)&emsp;&emsp;&emsp;&emsp;inanimate (right arrow),semantic,3000.0,,/static/object_pics/picture_insect/grasshopper.jpg,7000.0,animate,photo,503.7247008049941,True,,MEM,MEM_0058,2022-12-08 21:49:34
,visual-trial,126,718815,0.0-126.0,,,,,800.0,,,arrowright,photo (left arrow)&emsp;&emsp;&emsp;&emsp;drawing (right arrow),perceptual,3000.0,,/static/object_pics/drawing_fruit/papaya.jpg,7000.0,inanimate,drawing,1337.5661584582267,True,,MEM,MEM_0058,2022-12-08 21:49:34
,visual-trial,127,723450,0.0-127.0,,,,,983.0,,,arrowright,animate (left arrow)&emsp;&emsp;&emsp;&emsp;inanimate (right arrow),semantic,3000.0,,/static/object_pics/drawing_fruit/watermelon.jpg,7000.0,inanimate,drawing,640.5473849575916,True,,MEM,MEM_0058,2022-12-08 21:49:34
,visual-trial,128,728286,0.0-128.0,,,,,1218.0,,,arrowright,photo (left arrow)&emsp;&emsp;&emsp;&emsp;drawing (right arrow),perceptual,3000.0,,/static/object_pics/drawing_sea/seahorse.jpg,7000.0,animate,drawing,599.5850907829729,True,,MEM,MEM_0058,2022-12-08 21:49:34
,visual-trial,129,733183,0.0-129.0,,,,,1029.0,,,arrowleft,photo (left arrow)&emsp;&emsp;&emsp;&emsp;drawing (right arrow),perceptual,3000.0,,/static/object_pics/picture_veggie/lettuce.jpg,7000.0,inanimate,photo,864.410990455486,True,,MEM,MEM_0058,2022-12-08 21:49:34
,visual-trial,130,738994,0.0-130.0,,,,,1817.0,,,arrowleft,animate (left arrow)&emsp;&emsp;&emsp;&emsp;inanimate (right arrow),semantic,3000.0,,/static/object_pics/drawing_mammal/squirrel.jpg,7000.0,animate,drawing,980.6681951630881,True,,MEM,MEM_0058,2022-12-08 21:49:34
,visual-trial,131,743862,0.0-131.0,,,,,1224.0,,,arrowleft,photo (left arrow)&emsp;&emsp;&emsp;&emsp;drawing (right arrow),perceptual,3000.0,,/static/object_pics/picture_veggie/beetroot.jpg,7000.0,inanimate,photo,631.9833034757622,True,,MEM,MEM_0058,2022-12-08 21:49:34
,visual-trial,132,749442,0.0-132.0,,,,,1331.0,,,arrowright,photo (left arrow)&emsp;&emsp;&emsp;&emsp;drawing (right arrow),perceptual,3000.0,,/static/object_pics/drawing_clothe/belt.jpg,7000.0,inanimate,drawing,1236.7620352648219,True,,MEM,MEM_0058,2022-12-08 21:49:34
,visual-trial,133,754642,0.0-133.0,,,,,816.0,,,arrowleft,photo (left arrow)&emsp;&emsp;&emsp;&emsp;drawing (right arrow),perceptual,3000.0,,/static/object_pics/picture_insect/ant.jpg,7000.0,animate,photo,1366.5108366363024,True,,MEM,MEM_0058,2022-12-08 21:49:34
,visual-trial,134,760179,0.0-134.0,,,,,1066.0,,,arrowright,photo (left arrow)&emsp;&emsp;&emsp;&emsp;drawing (right arrow),perceptual,3000.0,,/static/object_pics/drawing_mammal/kangaroo.jpg,7000.0,animate,drawing,1462.6184410425242,True,,MEM,MEM_0058,2022-12-08 21:49:34
,visual-trial,135,764954,0.0-135.0,,,,,826.0,,,arrowright,animate (left arrow)&emsp;&emsp;&emsp;&emsp;inanimate (right arrow),semantic,3000.0,,/static/object_pics/drawing_clothe/gloves.jpg,7000.0,inanimate,drawing,924.6052741686939,True,,MEM,MEM_0058,2022-12-08 21:49:34
,visual-trial,136,770195,0.0-136.0,,,,,1006.0,,,arrowleft,animate (left arrow)&emsp;&emsp;&emsp;&emsp;inanimate (right arrow),semantic,3000.0,,/static/object_pics/picture_insect/mantis.jpg,7000.0,animate,photo,1218.395130396465,True,,MEM,MEM_0058,2022-12-08 21:49:34
,visual-trial,137,775083,0.0-137.0,,,,,897.0,,,arrowright,photo (left arrow)&emsp;&emsp;&emsp;&emsp;drawing (right arrow),perceptual,3000.0,,/static/object_pics/drawing_fruit/banana.jpg,7000.0,inanimate,drawing,967.3307816768008,True,,MEM,MEM_0058,2022-12-08 21:49:34
,visual-trial,138,780802,0.0-138.0,,,,,1596.0,,,arrowleft,photo (left arrow)&emsp;&emsp;&emsp;&emsp;drawing (right arrow),perceptual,3000.0,,/static/object_pics/picture_electronic/hairdryer.jpg,7000.0,inanimate,photo,1115.0739953268717,True,,MEM,MEM_0058,2022-12-08 21:49:34
,visual-trial,139,785706,0.0-139.0,,,,,969.0,,,arrowleft,animate (left arrow)&emsp;&emsp;&emsp;&emsp;inanimate (right arrow),semantic,3000.0,,/static/object_pics/drawing_sea/starfish.jpg,7000.0,animate,drawing,919.6135474289424,True,,MEM,MEM_0058,2022-12-08 21:49:34
,visual-trial,140,790594,0.0-140.0,,,,,931.0,,,arrowleft,animate (left arrow)&emsp;&emsp;&emsp;&emsp;inanimate (right arrow),semantic,3000.0,,/static/object_pics/drawing_sea/seaturtle.jpg,7000.0,animate,drawing,938.3332804800057,True,,MEM,MEM_0058,2022-12-08 21:49:34
,html-keyboard-response,141,793599,0.0-141.0,,,,,3004.0,"
      <p>Thank you for your participation!</p>
      The goal of this study is to replicate previous findings that the timing of responses in memory-dependent tasks
      is rhythmic in nature (compared to the timing of responses in memory-independent tasks).
      You performed the memory-independent tasks in this study.
      <br>
      Your participation will allow us to better understand how memory works.
      Please do not share this information with other potential participants.
      <br>
      Press the space bar to continue.</p>", ,,,,,,,,,,,,,MEM,MEM_0058,2022-12-08 21:49:34
