success,trial_type,trial_index,time_elapsed,internal_node_id,timeout,failed_images,failed_audio,failed_video,rt,stimulus,response,key,instruction,instruction_class,instruction_duration,prompt,object,object_duration,animacy,style,jitter,accurate,question_order,exp,subjectId,date
True,fullscreen,0,2787,0.0-0.0,,,,,,,,,,,,,,,,,,,,MEM,MEM_0077,2022-12-08 22:26:45
True,preload,1,6091,0.0-1.0,False,[],[],[],,,,,,,,,,,,,,,,MEM,MEM_0077,2022-12-08 22:26:45
,html-keyboard-response,2,33444,0.0-2.0,,,,,27352.0,"
      <p>In this task, you will see a series of objects. On some trials, your job is to determine
      whether the object shown is a color photograph or a line drawing. On other trials, your job
      is to determine whether the object represented is animate or inanimate.

      <br><br>
      You will know which response to make depending on the initial display, which will say
      ""animate / inanimate"" or ""photo / drawing"".
      <br>
      <br>
      You will be able to use the left arrow key to report animate/photo and the right arrow key to report inanimate/drawing.
      <br>
      Please respond as quickly as possible, and use your dominant hand to make your responses.
      <br><br>
      <img src=""/static/instructions_pics/visual_pic.png"" height=""300px"">
      <br>
      In the example in the top row, the correct response is animate (left arrow key). In the example in the bottom row, the correct response is photo (left arrow key).
      <br>
      <br>You will first do some practice trials. When you are ready to begin, press the space bar.</p>", ,,,,,,,,,,,,,MEM,MEM_0077,2022-12-08 22:26:45
,visual-trial,3,40824,0.0-3.0,,,,,2951.0,,,arrowleft,animate (left arrow)&emsp;&emsp;&emsp;&emsp;inanimate (right arrow),semantic,3000.0,,/static/for_instructions/object_pics/drawing_bird/heron.jpg,7000.0,animate,drawing,1422.4476330765538,True,,MEM,MEM_0077,2022-12-08 22:26:45
,visual-trial,4,45908,0.0-4.0,,,,,1237.0,,,arrowright,photo (left arrow)&emsp;&emsp;&emsp;&emsp;drawing (right arrow),perceptual,3000.0,,/static/for_instructions/object_pics/picture_electronic/flashlight.jpg,7000.0,inanimate,photo,840.7541279204662,False,,MEM,MEM_0077,2022-12-08 22:26:45
,visual-trial,5,51541,0.0-5.0,,,,,1727.0,,,arrowright,animate (left arrow)&emsp;&emsp;&emsp;&emsp;inanimate (right arrow),semantic,3000.0,,/static/for_instructions/object_pics/drawing_clothe/hockey helmet.jpg,7000.0,inanimate,drawing,899.7016983569958,True,,MEM,MEM_0077,2022-12-08 22:26:45
,visual-trial,6,57050,0.0-6.0,,,,,1524.0,,,arrowleft,photo (left arrow)&emsp;&emsp;&emsp;&emsp;drawing (right arrow),perceptual,3000.0,,/static/for_instructions/object_pics/picture_veggie/avocado.jpg,7000.0,inanimate,photo,982.3059188512253,True,,MEM,MEM_0077,2022-12-08 22:26:45
,survey-multi-choice,7,65014,0.0-7.0-0.0,,,,,7962.0,,"{'Style': 'True', 'Animacy': 'True'}",,,,,,,,,,,,"[0, 1]",MEM,MEM_0077,2022-12-08 22:26:45
,html-keyboard-response,8,68137,0.0-8.0,,,,,3120.0,"
      <p>Great job! Now you'll continue onto doing the main task.
      You will have the opportunity to take brief breaks at various points.
      Good luck!<br>Press the space bar to continue.</p>", ,,,,,,,,,,,,,MEM,MEM_0077,2022-12-08 22:26:45
True,fullscreen,9,71077,0.0-9.0,,,,,,,,,,,,,,,,,,,,MEM,MEM_0077,2022-12-08 22:26:45
,visual-trial,10,75949,0.0-10.0,,,,,1081.0,,,arrowright,animate (left arrow)&emsp;&emsp;&emsp;&emsp;inanimate (right arrow),semantic,3000.0,,/static/object_pics/drawing_electronic/coffee maker.jpg,7000.0,inanimate,drawing,783.568422188644,True,,MEM,MEM_0077,2022-12-08 22:26:45
,visual-trial,11,80294,0.0-11.0,,,,,810.0,,,arrowleft,photo (left arrow)&emsp;&emsp;&emsp;&emsp;drawing (right arrow),perceptual,3000.0,,/static/object_pics/picture_veggie/lettuce.jpg,7000.0,inanimate,photo,531.3763897425449,True,,MEM,MEM_0077,2022-12-08 22:26:45
,visual-trial,12,85868,0.0-12.0,,,,,1125.0,,,arrowleft,animate (left arrow)&emsp;&emsp;&emsp;&emsp;inanimate (right arrow),semantic,3000.0,,/static/object_pics/picture_fruit/coconut.jpg,7000.0,inanimate,photo,1444.0490832542703,False,,MEM,MEM_0077,2022-12-08 22:26:45
,visual-trial,13,90972,0.0-13.0,,,,,1139.0,,,arrowleft,animate (left arrow)&emsp;&emsp;&emsp;&emsp;inanimate (right arrow),semantic,3000.0,,/static/object_pics/picture_veggie/beetroot.jpg,7000.0,inanimate,photo,958.419030997823,False,,MEM,MEM_0077,2022-12-08 22:26:45
,visual-trial,14,96216,0.0-14.0,,,,,1164.0,,,arrowleft,photo (left arrow)&emsp;&emsp;&emsp;&emsp;drawing (right arrow),perceptual,3000.0,,/static/object_pics/picture_fruit/grapes.jpg,7000.0,inanimate,photo,1072.7312669205717,True,,MEM,MEM_0077,2022-12-08 22:26:45
,visual-trial,15,101854,0.0-15.0,,,,,1369.0,,,arrowleft,animate (left arrow)&emsp;&emsp;&emsp;&emsp;inanimate (right arrow),semantic,3000.0,,/static/object_pics/picture_sea/killer whale.jpg,7000.0,animate,photo,1267.5148415144029,True,,MEM,MEM_0077,2022-12-08 22:26:45
,visual-trial,16,106972,0.0-16.0,,,,,1465.0,,,arrowright,photo (left arrow)&emsp;&emsp;&emsp;&emsp;drawing (right arrow),perceptual,3000.0,,/static/object_pics/drawing_insect/dragonfly.jpg,7000.0,animate,drawing,645.3912797681609,True,,MEM,MEM_0077,2022-12-08 22:26:45
,visual-trial,17,111965,0.0-17.0,,,,,891.0,,,arrowleft,animate (left arrow)&emsp;&emsp;&emsp;&emsp;inanimate (right arrow),semantic,3000.0,,/static/object_pics/picture_bird/penguin.jpg,7000.0,animate,photo,1096.6420741724432,True,,MEM,MEM_0077,2022-12-08 22:26:45
,visual-trial,18,117323,0.0-18.0,,,,,1083.0,,,arrowleft,animate (left arrow)&emsp;&emsp;&emsp;&emsp;inanimate (right arrow),semantic,3000.0,,/static/object_pics/picture_fruit/melon.jpg,7000.0,inanimate,photo,1271.0772123552515,False,,MEM,MEM_0077,2022-12-08 22:26:45
,visual-trial,19,122271,0.0-19.0,,,,,806.0,,,arrowright,photo (left arrow)&emsp;&emsp;&emsp;&emsp;drawing (right arrow),perceptual,3000.0,,/static/object_pics/drawing_clothe/belt.jpg,7000.0,inanimate,drawing,1139.977454232345,True,,MEM,MEM_0077,2022-12-08 22:26:45
,visual-trial,20,127801,0.0-20.0,,,,,1407.0,,,arrowleft,photo (left arrow)&emsp;&emsp;&emsp;&emsp;drawing (right arrow),perceptual,3000.0,,/static/object_pics/drawing_mammal/lion.jpg,7000.0,animate,drawing,1116.8576457322213,False,,MEM,MEM_0077,2022-12-08 22:26:45
,visual-trial,21,133041,0.0-21.0,,,,,1069.0,,,arrowright,photo (left arrow)&emsp;&emsp;&emsp;&emsp;drawing (right arrow),perceptual,3000.0,,/static/object_pics/drawing_mammal/elephant.jpg,7000.0,animate,drawing,1162.2775307422735,True,,MEM,MEM_0077,2022-12-08 22:26:45
,visual-trial,22,138291,0.0-22.0,,,,,1072.0,,,arrowleft,photo (left arrow)&emsp;&emsp;&emsp;&emsp;drawing (right arrow),perceptual,3000.0,,/static/object_pics/picture_veggie/cauliflower.jpg,7000.0,inanimate,photo,1173.4861843450085,True,,MEM,MEM_0077,2022-12-08 22:26:45
,visual-trial,23,142838,0.0-23.0,,,,,771.0,,,arrowleft,photo (left arrow)&emsp;&emsp;&emsp;&emsp;drawing (right arrow),perceptual,3000.0,,/static/object_pics/picture_bird/hen.jpg,7000.0,animate,photo,773.8541681207937,True,,MEM,MEM_0077,2022-12-08 22:26:45
,visual-trial,24,147662,0.0-24.0,,,,,870.0,,,arrowright,photo (left arrow)&emsp;&emsp;&emsp;&emsp;drawing (right arrow),perceptual,3000.0,,/static/object_pics/drawing_clothe/bowtie.jpg,7000.0,inanimate,drawing,949.9219178046137,True,,MEM,MEM_0077,2022-12-08 22:26:45
,visual-trial,25,152261,0.0-25.0,,,,,674.0,,,arrowright,animate (left arrow)&emsp;&emsp;&emsp;&emsp;inanimate (right arrow),semantic,3000.0,,/static/object_pics/drawing_mammal/sheep.jpg,7000.0,animate,drawing,922.3237452827782,False,,MEM,MEM_0077,2022-12-08 22:26:45
,visual-trial,26,157424,0.0-26.0,,,,,868.0,,,arrowleft,photo (left arrow)&emsp;&emsp;&emsp;&emsp;drawing (right arrow),perceptual,3000.0,,/static/object_pics/picture_fruit/cherry.jpg,7000.0,inanimate,photo,1287.8351018825758,True,,MEM,MEM_0077,2022-12-08 22:26:45
,visual-trial,27,162342,0.0-27.0,,,,,1189.0,,,arrowleft,animate (left arrow)&emsp;&emsp;&emsp;&emsp;inanimate (right arrow),semantic,3000.0,,/static/object_pics/picture_veggie/aubergine.jpg,7000.0,inanimate,photo,723.9521280395762,False,,MEM,MEM_0077,2022-12-08 22:26:45
,visual-trial,28,166729,0.0-28.0,,,,,863.0,,,arrowright,animate (left arrow)&emsp;&emsp;&emsp;&emsp;inanimate (right arrow),semantic,3000.0,,/static/object_pics/drawing_insect/cockroach.jpg,7000.0,animate,drawing,516.3018651496786,False,,MEM,MEM_0077,2022-12-08 22:26:45
,visual-trial,29,172228,0.0-29.0,,,,,1044.0,,,arrowright,photo (left arrow)&emsp;&emsp;&emsp;&emsp;drawing (right arrow),perceptual,3000.0,,/static/object_pics/drawing_insect/snail.jpg,7000.0,animate,drawing,1450.5215651257254,True,,MEM,MEM_0077,2022-12-08 22:26:45
,visual-trial,30,177429,0.0-30.0,,,,,840.0,,,arrowleft,animate (left arrow)&emsp;&emsp;&emsp;&emsp;inanimate (right arrow),semantic,3000.0,,/static/object_pics/picture_veggie/tomato.jpg,7000.0,inanimate,photo,1357.7933520447918,False,,MEM,MEM_0077,2022-12-08 22:26:45
,visual-trial,31,184007,0.0-31.0,,,,,2118.0,,,arrowleft,photo (left arrow)&emsp;&emsp;&emsp;&emsp;drawing (right arrow),perceptual,3000.0,,/static/object_pics/picture_bird/pelican.jpg,7000.0,animate,photo,1453.4923866544755,True,,MEM,MEM_0077,2022-12-08 22:26:45
,visual-trial,32,189406,0.0-32.0,,,,,1445.0,,,arrowright,photo (left arrow)&emsp;&emsp;&emsp;&emsp;drawing (right arrow),perceptual,3000.0,,/static/object_pics/drawing_mammal/rhinoceros.jpg,7000.0,animate,drawing,948.0399327346918,True,,MEM,MEM_0077,2022-12-08 22:26:45
,visual-trial,33,193992,0.0-33.0,,,,,771.0,,,arrowleft,photo (left arrow)&emsp;&emsp;&emsp;&emsp;drawing (right arrow),perceptual,3000.0,,/static/object_pics/picture_fruit/banana.jpg,7000.0,inanimate,photo,809.3828901643991,True,,MEM,MEM_0077,2022-12-08 22:26:45
,visual-trial,34,199004,0.0-34.0,,,,,1238.0,,,arrowleft,animate (left arrow)&emsp;&emsp;&emsp;&emsp;inanimate (right arrow),semantic,3000.0,,/static/object_pics/picture_sea/seahorse.jpg,7000.0,animate,photo,768.4233753069736,True,,MEM,MEM_0077,2022-12-08 22:26:45
,visual-trial,35,203631,0.0-35.0,,,,,908.0,,,arrowleft,animate (left arrow)&emsp;&emsp;&emsp;&emsp;inanimate (right arrow),semantic,3000.0,,/static/object_pics/picture_fruit/apricot.jpg,7000.0,inanimate,photo,711.3340187882698,False,,MEM,MEM_0077,2022-12-08 22:26:45
,visual-trial,36,208872,0.0-36.0,,,,,936.0,,,arrowleft,animate (left arrow)&emsp;&emsp;&emsp;&emsp;inanimate (right arrow),semantic,3000.0,,/static/object_pics/picture_sea/octopus.jpg,7000.0,animate,photo,1298.6862356048239,True,,MEM,MEM_0077,2022-12-08 22:26:45
,visual-trial,37,213974,0.0-37.0,,,,,854.0,,,arrowright,animate (left arrow)&emsp;&emsp;&emsp;&emsp;inanimate (right arrow),semantic,3000.0,,/static/object_pics/drawing_clothe/football sneaker.jpg,7000.0,inanimate,drawing,1245.6300577881516,True,,MEM,MEM_0077,2022-12-08 22:26:45
,visual-trial,38,219384,0.0-38.0,,,,,959.0,,,arrowleft,animate (left arrow)&emsp;&emsp;&emsp;&emsp;inanimate (right arrow),semantic,3000.0,,/static/object_pics/picture_bird/peacock.jpg,7000.0,animate,photo,1449.508488887514,True,,MEM,MEM_0077,2022-12-08 22:26:45
,visual-trial,39,224599,0.0-39.0,,,,,1367.0,,,arrowright,photo (left arrow)&emsp;&emsp;&emsp;&emsp;drawing (right arrow),perceptual,3000.0,,/static/object_pics/drawing_clothe/sock.jpg,7000.0,inanimate,drawing,843.9072472847995,True,,MEM,MEM_0077,2022-12-08 22:26:45
,visual-trial,40,229498,0.0-40.0,,,,,1164.0,,,arrowleft,animate (left arrow)&emsp;&emsp;&emsp;&emsp;inanimate (right arrow),semantic,3000.0,,/static/object_pics/picture_veggie/garlic.jpg,7000.0,inanimate,photo,728.1666479280458,False,,MEM,MEM_0077,2022-12-08 22:26:45
,visual-trial,41,234728,0.0-41.0,,,,,890.0,,,arrowleft,animate (left arrow)&emsp;&emsp;&emsp;&emsp;inanimate (right arrow),semantic,3000.0,,/static/object_pics/picture_bird/vulture.jpg,7000.0,animate,photo,1334.7621820024028,True,,MEM,MEM_0077,2022-12-08 22:26:45
,html-keyboard-response,42,290898,0.0-42.0,,,,,56169.0,"
        <p>In that last set of trials, you were correct 69% of the time.</p>
        <p>Feel free to take a brief break. In the next set of trials, you will continue with the same task.
        The instructions are displayed below, in case you need a refresher.
        Press the space bar when you are ready to continue.</p>
        <p>In this task, you will see a series of objects. On some trials, your job is to determine
        whether the object shown is a color photograph or a line drawing. On other trials, your job
        is to determine whether the object represented is animate or inanimate.

        <br><br>
        You will know which response to make depending on the initial display, which will say
        ""animate / inanimate"" or ""photo / drawing"".
        <br>
        You will be able to use the left arrow key to report animate/photo and the right arrow key to report inanimate/drawing.
        <br>
        Please respond as quickly as possible, and use your dominant hand to make your responses.
        <br><br>
        You will be able to use the left arrow key to report animate/photo and the right arrow key to report inanimate/drawing.
        <br><br>
        <img src=""/static/instructions_pics/visual_pic.png"" height=""300px"">
        <br>
        In the example in the top row, the correct response is animate (left arrow key). In the example in the bottom row, the correct response is photo (left arrow key).
        <br>
        <br>When you are ready to begin, press the space bar.</p>", ,,,,,,,,,,,,,MEM,MEM_0077,2022-12-08 22:26:45
,visual-trial,43,296873,0.0-43.0,,,,,2066.0,,,arrowleft,photo (left arrow)&emsp;&emsp;&emsp;&emsp;drawing (right arrow),perceptual,3000.0,,/static/object_pics/picture_sea/mantaray.jpg,7000.0,animate,photo,907.6684152375562,True,,MEM,MEM_0077,2022-12-08 22:26:45
,visual-trial,44,302342,0.0-44.0,,,,,992.0,,,arrowright,animate (left arrow)&emsp;&emsp;&emsp;&emsp;inanimate (right arrow),semantic,3000.0,,/static/object_pics/drawing_insect/butterfly.jpg,7000.0,animate,drawing,1469.208869123122,False,,MEM,MEM_0077,2022-12-08 22:26:45
,visual-trial,45,307249,0.0-45.0,,,,,1105.0,,,arrowright,animate (left arrow)&emsp;&emsp;&emsp;&emsp;inanimate (right arrow),semantic,3000.0,,/static/object_pics/drawing_electronic/microphone.jpg,7000.0,inanimate,drawing,799.5463446381885,True,,MEM,MEM_0077,2022-12-08 22:26:45
,visual-trial,46,312441,0.0-46.0,,,,,1472.0,,,arrowright,photo (left arrow)&emsp;&emsp;&emsp;&emsp;drawing (right arrow),perceptual,3000.0,,/static/object_pics/drawing_insect/mantis.jpg,7000.0,animate,drawing,712.541283501668,True,,MEM,MEM_0077,2022-12-08 22:26:45
,visual-trial,47,317753,0.0-47.0,,,,,1491.0,,,arrowright,photo (left arrow)&emsp;&emsp;&emsp;&emsp;drawing (right arrow),perceptual,3000.0,,/static/object_pics/drawing_insect/mosquito.jpg,7000.0,animate,drawing,818.7005721564127,True,,MEM,MEM_0077,2022-12-08 22:26:45
,visual-trial,48,322659,0.0-48.0,,,,,1294.0,,,arrowright,photo (left arrow)&emsp;&emsp;&emsp;&emsp;drawing (right arrow),perceptual,3000.0,,/static/object_pics/drawing_electronic/satellite dish.jpg,7000.0,inanimate,drawing,606.0023889250222,True,,MEM,MEM_0077,2022-12-08 22:26:45
,visual-trial,49,327680,0.0-49.0,,,,,846.0,,,arrowright,animate (left arrow)&emsp;&emsp;&emsp;&emsp;inanimate (right arrow),semantic,3000.0,,/static/object_pics/drawing_electronic/laptop.jpg,7000.0,inanimate,drawing,1172.0088602674268,True,,MEM,MEM_0077,2022-12-08 22:26:45
,visual-trial,50,333032,0.0-50.0,,,,,1038.0,,,arrowright,animate (left arrow)&emsp;&emsp;&emsp;&emsp;inanimate (right arrow),semantic,3000.0,,/static/object_pics/drawing_clothe/tie.jpg,7000.0,inanimate,drawing,1308.9573943247108,True,,MEM,MEM_0077,2022-12-08 22:26:45
,visual-trial,51,338182,0.0-51.0,,,,,1254.0,,,arrowleft,photo (left arrow)&emsp;&emsp;&emsp;&emsp;drawing (right arrow),perceptual,3000.0,,/static/object_pics/picture_bird/turkey.jpg,7000.0,animate,photo,891.7510543668394,True,,MEM,MEM_0077,2022-12-08 22:26:45
,visual-trial,52,344441,0.0-52.0,,,,,2097.0,,,arrowright,animate (left arrow)&emsp;&emsp;&emsp;&emsp;inanimate (right arrow),semantic,3000.0,,/static/object_pics/drawing_insect/ladybug.jpg,7000.0,animate,drawing,1160.9187137504853,False,,MEM,MEM_0077,2022-12-08 22:26:45
,visual-trial,53,349506,0.0-53.0,,,,,1182.0,,,arrowleft,photo (left arrow)&emsp;&emsp;&emsp;&emsp;drawing (right arrow),perceptual,3000.0,,/static/object_pics/picture_veggie/artichoke.jpg,7000.0,inanimate,photo,875.6916138027134,True,,MEM,MEM_0077,2022-12-08 22:26:45
,visual-trial,54,354428,0.0-54.0,,,,,1048.0,,,arrowright,animate (left arrow)&emsp;&emsp;&emsp;&emsp;inanimate (right arrow),semantic,3000.0,,/static/object_pics/drawing_clothe/scarf.jpg,7000.0,inanimate,drawing,870.1459876559516,True,,MEM,MEM_0077,2022-12-08 22:26:45
,visual-trial,55,359865,0.0-55.0,,,,,1400.0,,,arrowleft,animate (left arrow)&emsp;&emsp;&emsp;&emsp;inanimate (right arrow),semantic,3000.0,,/static/object_pics/picture_sea/jellyfish.jpg,7000.0,animate,photo,1031.6006797262708,True,,MEM,MEM_0077,2022-12-08 22:26:45
,visual-trial,56,365523,0.0-56.0,,,,,1323.0,,,arrowright,animate (left arrow)&emsp;&emsp;&emsp;&emsp;inanimate (right arrow),semantic,3000.0,,/static/object_pics/drawing_electronic/gamepad.jpg,7000.0,inanimate,drawing,1331.9143067040288,True,,MEM,MEM_0077,2022-12-08 22:26:45
,visual-trial,57,370840,0.0-57.0,,,,,1403.0,,,arrowright,photo (left arrow)&emsp;&emsp;&emsp;&emsp;drawing (right arrow),perceptual,3000.0,,/static/object_pics/drawing_mammal/squirrel.jpg,7000.0,animate,drawing,909.0949540640256,True,,MEM,MEM_0077,2022-12-08 22:26:45
,visual-trial,58,375926,0.0-58.0,,,,,1160.0,,,arrowright,animate (left arrow)&emsp;&emsp;&emsp;&emsp;inanimate (right arrow),semantic,3000.0,,/static/object_pics/drawing_mammal/gorilla.jpg,7000.0,animate,drawing,921.1610367407272,False,,MEM,MEM_0077,2022-12-08 22:26:45
,visual-trial,59,381630,0.0-59.0,,,,,2029.0,,,arrowleft,animate (left arrow)&emsp;&emsp;&emsp;&emsp;inanimate (right arrow),semantic,3000.0,,/static/object_pics/picture_bird/toucan.jpg,7000.0,animate,photo,668.6175056998012,True,,MEM,MEM_0077,2022-12-08 22:26:45
,visual-trial,60,386579,0.0-60.0,,,,,1237.0,,,arrowright,photo (left arrow)&emsp;&emsp;&emsp;&emsp;drawing (right arrow),perceptual,3000.0,,/static/object_pics/drawing_insect/fly.jpg,7000.0,animate,drawing,707.0836378134073,True,,MEM,MEM_0077,2022-12-08 22:26:45
,visual-trial,61,392023,0.0-61.0,,,,,1108.0,,,arrowleft,photo (left arrow)&emsp;&emsp;&emsp;&emsp;drawing (right arrow),perceptual,3000.0,,/static/object_pics/picture_veggie/mushrooms.jpg,7000.0,inanimate,photo,1330.0531852723352,True,,MEM,MEM_0077,2022-12-08 22:26:45
,visual-trial,62,398094,0.0-62.0,,,,,1612.0,,,arrowright,animate (left arrow)&emsp;&emsp;&emsp;&emsp;inanimate (right arrow),semantic,3000.0,,/static/object_pics/drawing_insect/centipede.jpg,7000.0,animate,drawing,1456.1683040705152,False,,MEM,MEM_0077,2022-12-08 22:26:45
,visual-trial,63,403358,0.0-63.0,,,,,920.0,,,arrowright,animate (left arrow)&emsp;&emsp;&emsp;&emsp;inanimate (right arrow),semantic,3000.0,,/static/object_pics/drawing_clothe/hat.jpg,7000.0,inanimate,drawing,1341.509815225551,True,,MEM,MEM_0077,2022-12-08 22:26:45
,visual-trial,64,408636,0.0-64.0,,,,,1037.0,,,arrowleft,photo (left arrow)&emsp;&emsp;&emsp;&emsp;drawing (right arrow),perceptual,3000.0,,/static/object_pics/picture_fruit/pomegranate.jpg,7000.0,inanimate,photo,1235.469892587482,True,,MEM,MEM_0077,2022-12-08 22:26:45
,visual-trial,65,413166,0.0-65.0,,,,,930.0,,,arrowleft,animate (left arrow)&emsp;&emsp;&emsp;&emsp;inanimate (right arrow),semantic,3000.0,,/static/object_pics/picture_sea/seal.jpg,7000.0,animate,photo,598.3374649777,True,,MEM,MEM_0077,2022-12-08 22:26:45
,visual-trial,66,417866,0.0-66.0,,,,,1114.0,,,arrowleft,photo (left arrow)&emsp;&emsp;&emsp;&emsp;drawing (right arrow),perceptual,3000.0,,/static/object_pics/picture_veggie/cucumber.jpg,7000.0,inanimate,photo,582.9398260989083,True,,MEM,MEM_0077,2022-12-08 22:26:45
,visual-trial,67,423272,0.0-67.0,,,,,952.0,,,arrowright,animate (left arrow)&emsp;&emsp;&emsp;&emsp;inanimate (right arrow),semantic,3000.0,,/static/object_pics/drawing_mammal/horse.jpg,7000.0,animate,drawing,1447.2690814128587,False,,MEM,MEM_0077,2022-12-08 22:26:45
,visual-trial,68,428083,0.0-68.0,,,,,934.0,,,arrowright,photo (left arrow)&emsp;&emsp;&emsp;&emsp;drawing (right arrow),perceptual,3000.0,,/static/object_pics/drawing_mammal/bear.jpg,7000.0,animate,drawing,875.1862681091641,True,,MEM,MEM_0077,2022-12-08 22:26:45
,visual-trial,69,433148,0.0-69.0,,,,,959.0,,,arrowright,animate (left arrow)&emsp;&emsp;&emsp;&emsp;inanimate (right arrow),semantic,3000.0,,/static/object_pics/drawing_electronic/remote control.jpg,7000.0,inanimate,drawing,1102.3566763474955,True,,MEM,MEM_0077,2022-12-08 22:26:45
,visual-trial,70,438090,0.0-70.0,,,,,1095.0,,,arrowleft,animate (left arrow)&emsp;&emsp;&emsp;&emsp;inanimate (right arrow),semantic,3000.0,,/static/object_pics/picture_sea/seaturtle.jpg,7000.0,animate,photo,844.2755500331414,True,,MEM,MEM_0077,2022-12-08 22:26:45
,visual-trial,71,443275,0.0-71.0,,,,,1479.0,,,arrowleft,animate (left arrow)&emsp;&emsp;&emsp;&emsp;inanimate (right arrow),semantic,3000.0,,/static/object_pics/picture_veggie/pepper.jpg,7000.0,inanimate,photo,704.0548318402347,False,,MEM,MEM_0077,2022-12-08 22:26:45
,visual-trial,72,448100,0.0-72.0,,,,,1045.0,,,arrowleft,photo (left arrow)&emsp;&emsp;&emsp;&emsp;drawing (right arrow),perceptual,3000.0,,/static/object_pics/picture_bird/hummingbird.jpg,7000.0,animate,photo,774.3657359358083,True,,MEM,MEM_0077,2022-12-08 22:26:45
,visual-trial,73,452908,0.0-73.0,,,,,948.0,,,arrowleft,animate (left arrow)&emsp;&emsp;&emsp;&emsp;inanimate (right arrow),semantic,3000.0,,/static/object_pics/picture_sea/shark.jpg,7000.0,animate,photo,854.4641922893102,True,,MEM,MEM_0077,2022-12-08 22:26:45
,visual-trial,74,457831,0.0-74.0,,,,,902.0,,,arrowleft,photo (left arrow)&emsp;&emsp;&emsp;&emsp;drawing (right arrow),perceptual,3000.0,,/static/object_pics/picture_fruit/apple.jpg,7000.0,inanimate,photo,1017.7125446684698,True,,MEM,MEM_0077,2022-12-08 22:26:45
,html-keyboard-response,75,461735,0.0-75.0,,,,,3903.0,"
        <p>In that last set of trials, you were correct 81% of the time.</p>
        <p>Feel free to take a brief break. In the next set of trials, you will continue with the same task.
        The instructions are displayed below, in case you need a refresher.
        Press the space bar when you are ready to continue.</p>
        <p>In this task, you will see a series of objects. On some trials, your job is to determine
        whether the object shown is a color photograph or a line drawing. On other trials, your job
        is to determine whether the object represented is animate or inanimate.

        <br><br>
        You will know which response to make depending on the initial display, which will say
        ""animate / inanimate"" or ""photo / drawing"".
        <br>
        You will be able to use the left arrow key to report animate/photo and the right arrow key to report inanimate/drawing.
        <br>
        Please respond as quickly as possible, and use your dominant hand to make your responses.
        <br><br>
        You will be able to use the left arrow key to report animate/photo and the right arrow key to report inanimate/drawing.
        <br><br>
        <img src=""/static/instructions_pics/visual_pic.png"" height=""300px"">
        <br>
        In the example in the top row, the correct response is animate (left arrow key). In the example in the bottom row, the correct response is photo (left arrow key).
        <br>
        <br>When you are ready to begin, press the space bar.</p>", ,,,,,,,,,,,,,MEM,MEM_0077,2022-12-08 22:26:45
,visual-trial,76,467484,0.0-76.0,,,,,1603.0,,,arrowleft,animate (left arrow)&emsp;&emsp;&emsp;&emsp;inanimate (right arrow),semantic,3000.0,,/static/object_pics/picture_sea/shrimp.jpg,7000.0,animate,photo,1143.9906931083829,True,,MEM,MEM_0077,2022-12-08 22:26:45
,visual-trial,77,472215,0.0-77.0,,,,,848.0,,,arrowright,animate (left arrow)&emsp;&emsp;&emsp;&emsp;inanimate (right arrow),semantic,3000.0,,/static/object_pics/drawing_insect/beetle.jpg,7000.0,animate,drawing,879.3454474226028,False,,MEM,MEM_0077,2022-12-08 22:26:45
,visual-trial,78,477033,0.0-78.0,,,,,1203.0,,,arrowleft,photo (left arrow)&emsp;&emsp;&emsp;&emsp;drawing (right arrow),perceptual,3000.0,,/static/object_pics/picture_sea/dolphin.jpg,7000.0,animate,photo,612.8253755780919,True,,MEM,MEM_0077,2022-12-08 22:26:45
,visual-trial,79,482072,0.0-79.0,,,,,1232.0,,,arrowleft,animate (left arrow)&emsp;&emsp;&emsp;&emsp;inanimate (right arrow),semantic,3000.0,,/static/object_pics/picture_fruit/pineapple.jpg,7000.0,inanimate,photo,801.7536628782668,False,,MEM,MEM_0077,2022-12-08 22:26:45
,visual-trial,80,488664,0.0-80.0,,,,,2199.0,,,arrowleft,animate (left arrow)&emsp;&emsp;&emsp;&emsp;inanimate (right arrow),semantic,3000.0,,/static/object_pics/picture_bird/parrot.jpg,7000.0,animate,photo,1387.4591230069789,True,,MEM,MEM_0077,2022-12-08 22:26:45
,visual-trial,81,493456,0.0-81.0,,,,,843.0,,,arrowright,photo (left arrow)&emsp;&emsp;&emsp;&emsp;drawing (right arrow),perceptual,3000.0,,/static/object_pics/drawing_electronic/phone.jpg,7000.0,inanimate,drawing,939.7724711371147,True,,MEM,MEM_0077,2022-12-08 22:26:45
,visual-trial,82,499222,0.0-82.0,,,,,1263.0,,,arrowleft,photo (left arrow)&emsp;&emsp;&emsp;&emsp;drawing (right arrow),perceptual,3000.0,,/static/object_pics/picture_sea/swordfish.jpg,7000.0,animate,photo,1495.353034427053,True,,MEM,MEM_0077,2022-12-08 22:26:45
,visual-trial,83,505377,0.0-83.0,,,,,2228.0,,,arrowleft,animate (left arrow)&emsp;&emsp;&emsp;&emsp;inanimate (right arrow),semantic,3000.0,,/static/object_pics/picture_bird/canary.jpg,7000.0,animate,photo,920.108663776572,True,,MEM,MEM_0077,2022-12-08 22:26:45
,visual-trial,84,510777,0.0-84.0,,,,,993.0,,,arrowright,animate (left arrow)&emsp;&emsp;&emsp;&emsp;inanimate (right arrow),semantic,3000.0,,/static/object_pics/drawing_mammal/bull.jpg,7000.0,animate,drawing,1400.582844303438,False,,MEM,MEM_0077,2022-12-08 22:26:45
,visual-trial,85,516581,0.0-85.0,,,,,2252.0,,,arrowright,animate (left arrow)&emsp;&emsp;&emsp;&emsp;inanimate (right arrow),semantic,3000.0,,/static/object_pics/drawing_clothe/jeans.jpg,7000.0,inanimate,drawing,546.8853120697656,True,,MEM,MEM_0077,2022-12-08 22:26:45
,visual-trial,86,522084,0.0-86.0,,,,,1433.0,,,arrowleft,animate (left arrow)&emsp;&emsp;&emsp;&emsp;inanimate (right arrow),semantic,3000.0,,/static/object_pics/picture_fruit/lemon.jpg,7000.0,inanimate,photo,1063.3950804893311,False,,MEM,MEM_0077,2022-12-08 22:26:45
,visual-trial,87,526780,0.0-87.0,,,,,823.0,,,arrowright,photo (left arrow)&emsp;&emsp;&emsp;&emsp;drawing (right arrow),perceptual,3000.0,,/static/object_pics/drawing_clothe/glasses.jpg,7000.0,inanimate,drawing,865.5974574749073,True,,MEM,MEM_0077,2022-12-08 22:26:45
,visual-trial,88,533663,0.0-88.0,,,,,3034.0,,,arrowright,animate (left arrow)&emsp;&emsp;&emsp;&emsp;inanimate (right arrow),semantic,3000.0,,/static/object_pics/drawing_electronic/computer mouse.jpg,7000.0,inanimate,drawing,844.3752031416565,True,,MEM,MEM_0077,2022-12-08 22:26:45
,visual-trial,89,538960,0.0-89.0,,,,,825.0,,,arrowleft,photo (left arrow)&emsp;&emsp;&emsp;&emsp;drawing (right arrow),perceptual,3000.0,,/static/object_pics/picture_bird/duck.jpg,7000.0,animate,photo,1466.118568053812,True,,MEM,MEM_0077,2022-12-08 22:26:45
,visual-trial,90,544325,0.0-90.0,,,,,954.0,,,arrowleft,photo (left arrow)&emsp;&emsp;&emsp;&emsp;drawing (right arrow),perceptual,3000.0,,/static/object_pics/drawing_clothe/sport t-shirt.jpg,7000.0,inanimate,drawing,1408.527407763172,False,,MEM,MEM_0077,2022-12-08 22:26:45
,visual-trial,91,549129,0.0-91.0,,,,,1282.0,,,arrowleft,animate (left arrow)&emsp;&emsp;&emsp;&emsp;inanimate (right arrow),semantic,3000.0,,/static/object_pics/picture_fruit/orange.jpg,7000.0,inanimate,photo,517.1679387055583,False,,MEM,MEM_0077,2022-12-08 22:26:45
,visual-trial,92,554572,0.0-92.0,,,,,943.0,,,arrowleft,animate (left arrow)&emsp;&emsp;&emsp;&emsp;inanimate (right arrow),semantic,3000.0,,/static/object_pics/picture_veggie/corn.jpg,7000.0,inanimate,photo,1496.6242405697362,False,,MEM,MEM_0077,2022-12-08 22:26:45
,visual-trial,93,559631,0.0-93.0,,,,,737.0,,,arrowleft,animate (left arrow)&emsp;&emsp;&emsp;&emsp;inanimate (right arrow),semantic,3000.0,,/static/object_pics/picture_veggie/potato.jpg,7000.0,inanimate,photo,1318.2589012409226,False,,MEM,MEM_0077,2022-12-08 22:26:45
,visual-trial,94,565262,0.0-94.0,,,,,1214.0,,,arrowright,animate (left arrow)&emsp;&emsp;&emsp;&emsp;inanimate (right arrow),semantic,3000.0,,/static/object_pics/drawing_mammal/rabbit.jpg,7000.0,animate,drawing,1415.0266369771805,False,,MEM,MEM_0077,2022-12-08 22:26:45
,visual-trial,95,571121,0.0-95.0,,,,,1482.0,,,arrowright,animate (left arrow)&emsp;&emsp;&emsp;&emsp;inanimate (right arrow),semantic,3000.0,,/static/object_pics/drawing_clothe/high heels.jpg,7000.0,inanimate,drawing,1369.6474907472943,True,,MEM,MEM_0077,2022-12-08 22:26:45
,visual-trial,96,576987,0.0-96.0,,,,,1775.0,,,arrowleft,photo (left arrow)&emsp;&emsp;&emsp;&emsp;drawing (right arrow),perceptual,3000.0,,/static/object_pics/drawing_electronic/keyboard.jpg,7000.0,inanimate,drawing,1086.0111278503941,False,,MEM,MEM_0077,2022-12-08 22:26:45
,visual-trial,97,582099,0.0-97.0,,,,,1315.0,,,arrowright,animate (left arrow)&emsp;&emsp;&emsp;&emsp;inanimate (right arrow),semantic,3000.0,,/static/object_pics/drawing_electronic/calculator.jpg,7000.0,inanimate,drawing,794.3779248627932,True,,MEM,MEM_0077,2022-12-08 22:26:45
,visual-trial,98,587228,0.0-98.0,,,,,812.0,,,arrowright,photo (left arrow)&emsp;&emsp;&emsp;&emsp;drawing (right arrow),perceptual,3000.0,,/static/object_pics/drawing_mammal/antelope.jpg,7000.0,animate,drawing,1309.0834703634744,True,,MEM,MEM_0077,2022-12-08 22:26:45
,visual-trial,99,592105,0.0-99.0,,,,,1016.0,,,arrowleft,photo (left arrow)&emsp;&emsp;&emsp;&emsp;drawing (right arrow),perceptual,3000.0,,/static/object_pics/picture_bird/owl.jpg,7000.0,animate,photo,857.1842755417092,True,,MEM,MEM_0077,2022-12-08 22:26:45
,visual-trial,100,596600,0.0-100.0,,,,,752.0,,,arrowright,photo (left arrow)&emsp;&emsp;&emsp;&emsp;drawing (right arrow),perceptual,3000.0,,/static/object_pics/drawing_electronic/camera.jpg,7000.0,inanimate,drawing,737.6943419398497,True,,MEM,MEM_0077,2022-12-08 22:26:45
,visual-trial,101,603908,0.0-101.0,,,,,3550.0,,,arrowright,photo (left arrow)&emsp;&emsp;&emsp;&emsp;drawing (right arrow),perceptual,3000.0,,/static/object_pics/drawing_mammal/giraffe.jpg,7000.0,animate,drawing,753.6611739890835,True,,MEM,MEM_0077,2022-12-08 22:26:45
,visual-trial,102,609751,0.0-102.0,,,,,1688.0,,,arrowright,photo (left arrow)&emsp;&emsp;&emsp;&emsp;drawing (right arrow),perceptual,3000.0,,/static/object_pics/drawing_electronic/radio.jpg,7000.0,inanimate,drawing,1147.5590290213704,True,,MEM,MEM_0077,2022-12-08 22:26:45
,visual-trial,103,615003,0.0-103.0,,,,,1322.0,,,arrowright,photo (left arrow)&emsp;&emsp;&emsp;&emsp;drawing (right arrow),perceptual,3000.0,,/static/object_pics/drawing_insect/ant.jpg,7000.0,animate,drawing,928.5964409674557,True,,MEM,MEM_0077,2022-12-08 22:26:45
,visual-trial,104,620145,0.0-104.0,,,,,810.0,,,arrowleft,photo (left arrow)&emsp;&emsp;&emsp;&emsp;drawing (right arrow),perceptual,3000.0,,/static/object_pics/picture_veggie/onions.jpg,7000.0,inanimate,photo,1326.986445017757,True,,MEM,MEM_0077,2022-12-08 22:26:45
,visual-trial,105,625068,0.0-105.0,,,,,949.0,,,arrowright,photo (left arrow)&emsp;&emsp;&emsp;&emsp;drawing (right arrow),perceptual,3000.0,,/static/object_pics/drawing_clothe/dress.jpg,7000.0,inanimate,drawing,969.8400228702269,True,,MEM,MEM_0077,2022-12-08 22:26:45
,visual-trial,106,631016,0.0-106.0,,,,,2008.0,,,arrowleft,photo (left arrow)&emsp;&emsp;&emsp;&emsp;drawing (right arrow),perceptual,3000.0,,/static/object_pics/picture_fruit/strawberry.jpg,7000.0,inanimate,photo,931.1921324420198,True,,MEM,MEM_0077,2022-12-08 22:26:45
,visual-trial,107,636892,0.0-107.0,,,,,1541.0,,,arrowleft,animate (left arrow)&emsp;&emsp;&emsp;&emsp;inanimate (right arrow),semantic,3000.0,,/static/object_pics/picture_fruit/pear.jpg,7000.0,inanimate,photo,1328.4989307821784,False,,MEM,MEM_0077,2022-12-08 22:26:45
,html-keyboard-response,108,654589,0.0-108.0,,,,,17696.0,"
        <p>In that last set of trials, you were correct 66% of the time.</p>
        <p>Feel free to take a brief break. In the next set of trials, you will continue with the same task.
        The instructions are displayed below, in case you need a refresher.
        Press the space bar when you are ready to continue.</p>
        <p>In this task, you will see a series of objects. On some trials, your job is to determine
        whether the object shown is a color photograph or a line drawing. On other trials, your job
        is to determine whether the object represented is animate or inanimate.

        <br><br>
        You will know which response to make depending on the initial display, which will say
        ""animate / inanimate"" or ""photo / drawing"".
        <br>
        You will be able to use the left arrow key to report animate/photo and the right arrow key to report inanimate/drawing.
        <br>
        Please respond as quickly as possible, and use your dominant hand to make your responses.
        <br><br>
        You will be able to use the left arrow key to report animate/photo and the right arrow key to report inanimate/drawing.
        <br><br>
        <img src=""/static/instructions_pics/visual_pic.png"" height=""300px"">
        <br>
        In the example in the top row, the correct response is animate (left arrow key). In the example in the bottom row, the correct response is photo (left arrow key).
        <br>
        <br>When you are ready to begin, press the space bar.</p>", ,,,,,,,,,,,,,MEM,MEM_0077,2022-12-08 22:26:45
,visual-trial,109,659347,0.0-109.0,,,,,881.0,,,arrowright,animate (left arrow)&emsp;&emsp;&emsp;&emsp;inanimate (right arrow),semantic,3000.0,,/static/object_pics/drawing_mammal/bison.jpg,7000.0,animate,drawing,876.9938773346886,False,,MEM,MEM_0077,2022-12-08 22:26:45
,visual-trial,110,664796,0.0-110.0,,,,,1244.0,,,arrowright,photo (left arrow)&emsp;&emsp;&emsp;&emsp;drawing (right arrow),perceptual,3000.0,,/static/object_pics/drawing_electronic/handmixer.jpg,7000.0,inanimate,drawing,1202.769163739265,True,,MEM,MEM_0077,2022-12-08 22:26:45
,visual-trial,111,669089,0.0-111.0,,,,,701.0,,,arrowleft,photo (left arrow)&emsp;&emsp;&emsp;&emsp;drawing (right arrow),perceptual,3000.0,,/static/object_pics/picture_veggie/pumpkin.jpg,7000.0,inanimate,photo,584.4614240144185,True,,MEM,MEM_0077,2022-12-08 22:26:45
,visual-trial,112,673991,0.0-112.0,,,,,820.0,,,arrowright,animate (left arrow)&emsp;&emsp;&emsp;&emsp;inanimate (right arrow),semantic,3000.0,,/static/object_pics/drawing_insect/spider.jpg,7000.0,animate,drawing,1079.0562863889395,False,,MEM,MEM_0077,2022-12-08 22:26:45
,visual-trial,113,679113,0.0-113.0,,,,,1008.0,,,arrowright,photo (left arrow)&emsp;&emsp;&emsp;&emsp;drawing (right arrow),perceptual,3000.0,,/static/object_pics/drawing_electronic/hairdryer.jpg,7000.0,inanimate,drawing,1112.8914492519407,True,,MEM,MEM_0077,2022-12-08 22:26:45
,visual-trial,114,683939,0.0-114.0,,,,,1143.0,,,arrowleft,animate (left arrow)&emsp;&emsp;&emsp;&emsp;inanimate (right arrow),semantic,3000.0,,/static/object_pics/picture_bird/eagle.jpg,7000.0,animate,photo,677.0168717694271,True,,MEM,MEM_0077,2022-12-08 22:26:45
,visual-trial,115,690185,0.0-115.0,,,,,1939.0,,,arrowright,animate (left arrow)&emsp;&emsp;&emsp;&emsp;inanimate (right arrow),semantic,3000.0,,/static/object_pics/drawing_insect/grasshopper.jpg,7000.0,animate,drawing,1304.6320063486571,False,,MEM,MEM_0077,2022-12-08 22:26:45
,visual-trial,116,695599,0.0-116.0,,,,,1321.0,,,arrowleft,photo (left arrow)&emsp;&emsp;&emsp;&emsp;drawing (right arrow),perceptual,3000.0,,/static/object_pics/picture_sea/starfish02.jpg,7000.0,animate,photo,1085.9127591005958,True,,MEM,MEM_0077,2022-12-08 22:26:45
,visual-trial,117,700761,0.0-117.0,,,,,940.0,,,arrowright,animate (left arrow)&emsp;&emsp;&emsp;&emsp;inanimate (right arrow),semantic,3000.0,,/static/object_pics/drawing_clothe/slipper.jpg,7000.0,inanimate,drawing,1218.6230346373882,True,,MEM,MEM_0077,2022-12-08 22:26:45
,visual-trial,118,706044,0.0-118.0,,,,,1213.0,,,arrowright,animate (left arrow)&emsp;&emsp;&emsp;&emsp;inanimate (right arrow),semantic,3000.0,,/static/object_pics/drawing_insect/bumble bee.jpg,7000.0,animate,drawing,1065.065705512051,False,,MEM,MEM_0077,2022-12-08 22:26:45
,visual-trial,119,711635,0.0-119.0,,,,,1556.0,,,arrowleft,photo (left arrow)&emsp;&emsp;&emsp;&emsp;drawing (right arrow),perceptual,3000.0,,/static/object_pics/picture_fruit/papaya.jpg,7000.0,inanimate,photo,1031.5909009837897,True,,MEM,MEM_0077,2022-12-08 22:26:45
,visual-trial,120,716733,0.0-120.0,,,,,1499.0,,,arrowleft,photo (left arrow)&emsp;&emsp;&emsp;&emsp;drawing (right arrow),perceptual,3000.0,,/static/object_pics/picture_bird/ostrich.jpg,7000.0,animate,photo,594.1286090068037,True,,MEM,MEM_0077,2022-12-08 22:26:45
,visual-trial,121,724170,0.0-121.0,,,,,2942.0,,,arrowleft,photo (left arrow)&emsp;&emsp;&emsp;&emsp;drawing (right arrow),perceptual,3000.0,,/static/object_pics/picture_veggie/carrot.jpg,7000.0,inanimate,photo,1486.631444009955,True,,MEM,MEM_0077,2022-12-08 22:26:45
,visual-trial,122,728784,0.0-122.0,,,,,1087.0,,,arrowleft,photo (left arrow)&emsp;&emsp;&emsp;&emsp;drawing (right arrow),perceptual,3000.0,,/static/object_pics/picture_sea/eel.jpg,7000.0,animate,photo,524.0111214495,True,,MEM,MEM_0077,2022-12-08 22:26:45
,visual-trial,123,733281,0.0-123.0,,,,,958.0,,,arrowleft,animate (left arrow)&emsp;&emsp;&emsp;&emsp;inanimate (right arrow),semantic,3000.0,,/static/object_pics/picture_fruit/watermelon.jpg,7000.0,inanimate,photo,534.9934037137248,False,,MEM,MEM_0077,2022-12-08 22:26:45
,visual-trial,124,738206,0.0-124.0,,,,,890.0,,,arrowright,photo (left arrow)&emsp;&emsp;&emsp;&emsp;drawing (right arrow),perceptual,3000.0,,/static/object_pics/drawing_electronic/toaster.jpg,7000.0,inanimate,drawing,1028.4342214430662,True,,MEM,MEM_0077,2022-12-08 22:26:45
,visual-trial,125,743608,0.0-125.0,,,,,1468.0,,,arrowright,photo (left arrow)&emsp;&emsp;&emsp;&emsp;drawing (right arrow),perceptual,3000.0,,/static/object_pics/drawing_insect/scorpion.jpg,7000.0,animate,drawing,927.5915486591713,True,,MEM,MEM_0077,2022-12-08 22:26:45
,visual-trial,126,748875,0.0-126.0,,,,,948.0,,,arrowleft,photo (left arrow)&emsp;&emsp;&emsp;&emsp;drawing (right arrow),perceptual,3000.0,,/static/object_pics/picture_sea/pufferfish.jpg,7000.0,animate,photo,1315.3984819297593,True,,MEM,MEM_0077,2022-12-08 22:26:45
,visual-trial,127,754003,0.0-127.0,,,,,776.0,,,arrowright,photo (left arrow)&emsp;&emsp;&emsp;&emsp;drawing (right arrow),perceptual,3000.0,,/static/object_pics/drawing_mammal/camel.jpg,7000.0,animate,drawing,1344.2799327489442,True,,MEM,MEM_0077,2022-12-08 22:26:45
,visual-trial,128,759229,0.0-128.0,,,,,1537.0,,,arrowright,animate (left arrow)&emsp;&emsp;&emsp;&emsp;inanimate (right arrow),semantic,3000.0,,/static/object_pics/drawing_mammal/kangaroo.jpg,7000.0,animate,drawing,680.6036413822804,False,,MEM,MEM_0077,2022-12-08 22:26:45
,visual-trial,129,764133,0.0-129.0,,,,,1101.0,,,arrowright,photo (left arrow)&emsp;&emsp;&emsp;&emsp;drawing (right arrow),perceptual,3000.0,,/static/object_pics/drawing_clothe/hoodie.jpg,7000.0,inanimate,drawing,798.6617956409173,True,,MEM,MEM_0077,2022-12-08 22:26:45
,visual-trial,130,768796,0.0-130.0,,,,,1097.0,,,arrowright,photo (left arrow)&emsp;&emsp;&emsp;&emsp;drawing (right arrow),perceptual,3000.0,,/static/object_pics/drawing_mammal/wolf.jpg,7000.0,animate,drawing,562.0470557686504,True,,MEM,MEM_0077,2022-12-08 22:26:45
,visual-trial,131,773842,0.0-131.0,,,,,959.0,,,arrowleft,animate (left arrow)&emsp;&emsp;&emsp;&emsp;inanimate (right arrow),semantic,3000.0,,/static/object_pics/picture_sea/piranha.jpg,7000.0,animate,photo,1084.1309829246752,True,,MEM,MEM_0077,2022-12-08 22:26:45
,visual-trial,132,779615,0.0-132.0,,,,,1873.0,,,arrowleft,photo (left arrow)&emsp;&emsp;&emsp;&emsp;drawing (right arrow),perceptual,3000.0,,/static/object_pics/picture_fruit/kiwi.jpg,7000.0,inanimate,photo,895.9110971516934,True,,MEM,MEM_0077,2022-12-08 22:26:45
,visual-trial,133,785078,0.0-133.0,,,,,1653.0,,,arrowright,photo (left arrow)&emsp;&emsp;&emsp;&emsp;drawing (right arrow),perceptual,3000.0,,/static/object_pics/drawing_clothe/shirt.jpg,7000.0,inanimate,drawing,806.7905597169822,True,,MEM,MEM_0077,2022-12-08 22:26:45
,visual-trial,134,790232,0.0-134.0,,,,,804.0,,,arrowleft,photo (left arrow)&emsp;&emsp;&emsp;&emsp;drawing (right arrow),perceptual,3000.0,,/static/object_pics/picture_bird/pigeon.jpg,7000.0,animate,photo,1342.6128609113625,True,,MEM,MEM_0077,2022-12-08 22:26:45
,visual-trial,135,795050,0.0-135.0,,,,,1304.0,,,arrowleft,animate (left arrow)&emsp;&emsp;&emsp;&emsp;inanimate (right arrow),semantic,3000.0,,/static/object_pics/picture_veggie/asparagus.jpg,7000.0,inanimate,photo,510.2890262472435,False,,MEM,MEM_0077,2022-12-08 22:26:45
,visual-trial,136,800699,0.0-136.0,,,,,1681.0,,,arrowright,animate (left arrow)&emsp;&emsp;&emsp;&emsp;inanimate (right arrow),semantic,3000.0,,/static/object_pics/drawing_clothe/gloves.jpg,7000.0,inanimate,drawing,963.5772275426077,True,,MEM,MEM_0077,2022-12-08 22:26:45
,visual-trial,137,806076,0.0-137.0,,,,,1126.0,,,arrowleft,photo (left arrow)&emsp;&emsp;&emsp;&emsp;drawing (right arrow),perceptual,3000.0,,/static/object_pics/picture_sea/crab.jpg,7000.0,animate,photo,1245.4166098353776,True,,MEM,MEM_0077,2022-12-08 22:26:45
,visual-trial,138,811447,0.0-138.0,,,,,1168.0,,,arrowleft,photo (left arrow)&emsp;&emsp;&emsp;&emsp;drawing (right arrow),perceptual,3000.0,,/static/object_pics/picture_bird/flamingo.jpg,7000.0,animate,photo,1197.9603432806102,True,,MEM,MEM_0077,2022-12-08 22:26:45
,visual-trial,139,816441,0.0-139.0,,,,,839.0,,,arrowright,animate (left arrow)&emsp;&emsp;&emsp;&emsp;inanimate (right arrow),semantic,3000.0,,/static/object_pics/drawing_electronic/printer.jpg,7000.0,inanimate,drawing,1150.165637051709,True,,MEM,MEM_0077,2022-12-08 22:26:45
,visual-trial,140,820820,0.0-140.0,,,,,691.0,,,arrowright,animate (left arrow)&emsp;&emsp;&emsp;&emsp;inanimate (right arrow),semantic,3000.0,,/static/object_pics/drawing_insect/worm.jpg,7000.0,animate,drawing,684.8280707129679,False,,MEM,MEM_0077,2022-12-08 22:26:45
,html-keyboard-response,141,824332,0.0-141.0,,,,,3512.0,"
      <p>Thank you for your participation!</p>
      The goal of this study is to replicate previous findings that the timing of responses in memory-dependent tasks
      is rhythmic in nature (compared to the timing of responses in memory-independent tasks).
      You performed the memory-independent tasks in this study.
      <br>
      Your participation will allow us to better understand how memory works.
      Please do not share this information with other potential participants.
      <br>
      Press the space bar to continue.</p>", ,,,,,,,,,,,,,MEM,MEM_0077,2022-12-08 22:26:45
