success,trial_type,trial_index,time_elapsed,internal_node_id,timeout,failed_images,failed_audio,failed_video,rt,stimulus,response,key,instruction,instruction_class,instruction_duration,prompt,object,object_duration,animacy,style,jitter,accurate,question_order,exp,subjectId,date
True,fullscreen,0,2438,0.0-0.0,,,,,,,,,,,,,,,,,,,,MEM,MEM_0066,2022-12-08 22:06:55
True,preload,1,133760,0.0-1.0,False,[],[],[],,,,,,,,,,,,,,,,MEM,MEM_0066,2022-12-08 22:06:55
,html-keyboard-response,2,208109,0.0-2.0,,,,,57217.0,"
      <p>In this task, you will see a series of objects. On some trials, your job is to determine
      whether the object shown is a color photograph or a line drawing. On other trials, your job
      is to determine whether the object represented is animate or inanimate.

      <br><br>
      You will know which response to make depending on the initial display, which will say
      ""animate / inanimate"" or ""photo / drawing"".
      <br>
      <br>
      You will be able to use the left arrow key to report animate/photo and the right arrow key to report inanimate/drawing.
      <br>
      Please respond as quickly as possible, and use your dominant hand to make your responses.
      <br><br>
      <img src=""/static/instructions_pics/visual_pic.png"" height=""300px"">
      <br>
      In the example in the top row, the correct response is animate (left arrow key). In the example in the bottom row, the correct response is photo (left arrow key).
      <br>
      <br>You will first do some practice trials. When you are ready to begin, press the space bar.</p>", ,,,,,,,,,,,,,MEM,MEM_0066,2022-12-08 22:06:55
,visual-trial,3,213511,0.0-3.0,,,,,1439.0,,,arrowright,animate (left arrow)&emsp;&emsp;&emsp;&emsp;inanimate (right arrow),semantic,3000.0,,/static/for_instructions/object_pics/drawing_bird/heron.jpg,7000.0,animate,drawing,960.5561273749565,False,,MEM,MEM_0066,2022-12-08 22:06:55
,visual-trial,4,218929,0.0-4.0,,,,,1248.0,,,arrowleft,photo (left arrow)&emsp;&emsp;&emsp;&emsp;drawing (right arrow),perceptual,3000.0,,/static/for_instructions/object_pics/picture_electronic/flashlight.jpg,7000.0,inanimate,photo,1167.1767859244273,True,,MEM,MEM_0066,2022-12-08 22:06:55
,visual-trial,5,223651,0.0-5.0,,,,,888.0,,,arrowright,animate (left arrow)&emsp;&emsp;&emsp;&emsp;inanimate (right arrow),semantic,3000.0,,/static/for_instructions/object_pics/drawing_clothe/hockey helmet.jpg,7000.0,inanimate,drawing,831.7298347961355,True,,MEM,MEM_0066,2022-12-08 22:06:55
,visual-trial,6,228220,0.0-6.0,,,,,611.0,,,arrowleft,photo (left arrow)&emsp;&emsp;&emsp;&emsp;drawing (right arrow),perceptual,3000.0,,/static/for_instructions/object_pics/picture_veggie/avocado.jpg,7000.0,inanimate,photo,956.0356785634101,True,,MEM,MEM_0066,2022-12-08 22:06:55
,survey-multi-choice,7,233320,0.0-7.0-0.0,,,,,5098.0,,"{'Style': 'True', 'Animacy': 'True'}",,,,,,,,,,,,"[0, 1]",MEM,MEM_0066,2022-12-08 22:06:55
,html-keyboard-response,8,234647,0.0-8.0,,,,,1321.0,"
      <p>Great job! Now you'll continue onto doing the main task.
      You will have the opportunity to take brief breaks at various points.
      Good luck!<br>Press the space bar to continue.</p>", ,,,,,,,,,,,,,MEM,MEM_0066,2022-12-08 22:06:55
True,fullscreen,9,236968,0.0-9.0,,,,,,,,,,,,,,,,,,,,MEM,MEM_0066,2022-12-08 22:06:55
,visual-trial,10,242153,0.0-10.0,,,,,745.0,,,arrowleft,photo (left arrow)&emsp;&emsp;&emsp;&emsp;drawing (right arrow),perceptual,3000.0,,/static/object_pics/picture_mammal/kangaroo.jpg,7000.0,animate,photo,1437.544562068109,True,,MEM,MEM_0066,2022-12-08 22:06:55
,visual-trial,11,246676,0.0-11.0,,,,,586.0,,,arrowright,photo (left arrow)&emsp;&emsp;&emsp;&emsp;drawing (right arrow),perceptual,3000.0,,/static/object_pics/drawing_clothe/slipper.jpg,7000.0,inanimate,drawing,932.3938982801465,True,,MEM,MEM_0066,2022-12-08 22:06:55
,visual-trial,12,251131,0.0-12.0,,,,,642.0,,,arrowleft,photo (left arrow)&emsp;&emsp;&emsp;&emsp;drawing (right arrow),perceptual,3000.0,,/static/object_pics/picture_bird/pigeon.jpg,7000.0,animate,photo,809.3099378112822,True,,MEM,MEM_0066,2022-12-08 22:06:55
,visual-trial,13,255592,0.0-13.0,,,,,823.0,,,arrowright,animate (left arrow)&emsp;&emsp;&emsp;&emsp;inanimate (right arrow),semantic,3000.0,,/static/object_pics/drawing_clothe/bowtie.jpg,7000.0,inanimate,drawing,634.1241615779485,True,,MEM,MEM_0066,2022-12-08 22:06:55
,visual-trial,14,260443,0.0-14.0,,,,,673.0,,,arrowleft,animate (left arrow)&emsp;&emsp;&emsp;&emsp;inanimate (right arrow),semantic,3000.0,,/static/object_pics/drawing_sea/piranha.jpg,7000.0,animate,drawing,1175.3706641579283,True,,MEM,MEM_0066,2022-12-08 22:06:55
,visual-trial,15,265043,0.0-15.0,,,,,682.0,,,arrowright,animate (left arrow)&emsp;&emsp;&emsp;&emsp;inanimate (right arrow),semantic,3000.0,,/static/object_pics/drawing_clothe/glasses.jpg,7000.0,inanimate,drawing,914.5787826591005,True,,MEM,MEM_0066,2022-12-08 22:06:55
,visual-trial,16,269812,0.0-16.0,,,,,712.0,,,arrowright,photo (left arrow)&emsp;&emsp;&emsp;&emsp;drawing (right arrow),perceptual,3000.0,,/static/object_pics/drawing_clothe/gloves.jpg,7000.0,inanimate,drawing,1053.7546030363787,True,,MEM,MEM_0066,2022-12-08 22:06:55
,visual-trial,17,274624,0.0-17.0,,,,,711.0,,,arrowright,animate (left arrow)&emsp;&emsp;&emsp;&emsp;inanimate (right arrow),semantic,3000.0,,/static/object_pics/drawing_electronic/hairdryer.jpg,7000.0,inanimate,drawing,1098.0613822938951,True,,MEM,MEM_0066,2022-12-08 22:06:55
,visual-trial,18,278973,0.0-18.0,,,,,770.0,,,arrowleft,animate (left arrow)&emsp;&emsp;&emsp;&emsp;inanimate (right arrow),semantic,3000.0,,/static/object_pics/picture_mammal/gorilla.jpg,7000.0,animate,photo,575.0241316501541,True,,MEM,MEM_0066,2022-12-08 22:06:55
,visual-trial,19,284086,0.0-19.0,,,,,696.0,,,arrowleft,animate (left arrow)&emsp;&emsp;&emsp;&emsp;inanimate (right arrow),semantic,3000.0,,/static/object_pics/drawing_sea/shark.jpg,7000.0,animate,drawing,1413.8110148515261,True,,MEM,MEM_0066,2022-12-08 22:06:55
,visual-trial,20,288410,0.0-20.0,,,,,778.0,,,arrowright,photo (left arrow)&emsp;&emsp;&emsp;&emsp;drawing (right arrow),perceptual,3000.0,,/static/object_pics/drawing_electronic/phone.jpg,7000.0,inanimate,drawing,540.2136969210038,True,,MEM,MEM_0066,2022-12-08 22:06:55
,visual-trial,21,293428,0.0-21.0,,,,,625.0,,,arrowright,animate (left arrow)&emsp;&emsp;&emsp;&emsp;inanimate (right arrow),semantic,3000.0,,/static/object_pics/drawing_electronic/remote control.jpg,7000.0,inanimate,drawing,1392.8881917105896,True,,MEM,MEM_0066,2022-12-08 22:06:55
,visual-trial,22,298496,0.0-22.0,,,,,658.0,,,arrowright,animate (left arrow)&emsp;&emsp;&emsp;&emsp;inanimate (right arrow),semantic,3000.0,,/static/object_pics/picture_veggie/mushrooms.jpg,7000.0,inanimate,photo,1407.583597363915,True,,MEM,MEM_0066,2022-12-08 22:06:55
,visual-trial,23,303057,0.0-23.0,,,,,584.0,,,arrowright,animate (left arrow)&emsp;&emsp;&emsp;&emsp;inanimate (right arrow),semantic,3000.0,,/static/object_pics/drawing_clothe/hat.jpg,7000.0,inanimate,drawing,975.3025124925805,True,,MEM,MEM_0066,2022-12-08 22:06:55
,visual-trial,24,308787,0.0-24.0,,,,,1420.0,,,arrowleft,photo (left arrow)&emsp;&emsp;&emsp;&emsp;drawing (right arrow),perceptual,3000.0,,/static/object_pics/picture_fruit/pomegranate.jpg,7000.0,inanimate,photo,1307.5410571204934,True,,MEM,MEM_0066,2022-12-08 22:06:55
,visual-trial,25,314130,0.0-25.0,,,,,888.0,,,arrowright,animate (left arrow)&emsp;&emsp;&emsp;&emsp;inanimate (right arrow),semantic,3000.0,,/static/object_pics/drawing_clothe/scarf.jpg,7000.0,inanimate,drawing,1452.5251708956075,True,,MEM,MEM_0066,2022-12-08 22:06:55
,visual-trial,26,319197,0.0-26.0,,,,,814.0,,,arrowright,photo (left arrow)&emsp;&emsp;&emsp;&emsp;drawing (right arrow),perceptual,3000.0,,/static/object_pics/drawing_insect/beetle.jpg,7000.0,animate,drawing,1252.4920691521206,True,,MEM,MEM_0066,2022-12-08 22:06:55
,visual-trial,27,324078,0.0-27.0,,,,,659.0,,,arrowleft,animate (left arrow)&emsp;&emsp;&emsp;&emsp;inanimate (right arrow),semantic,3000.0,,/static/object_pics/picture_mammal/rhinoceros.jpg,7000.0,animate,photo,1219.8498897267732,True,,MEM,MEM_0066,2022-12-08 22:06:55
,visual-trial,28,329280,0.0-28.0,,,,,764.0,,,arrowright,photo (left arrow)&emsp;&emsp;&emsp;&emsp;drawing (right arrow),perceptual,3000.0,,/static/object_pics/drawing_electronic/camera.jpg,7000.0,inanimate,drawing,1436.249207366015,True,,MEM,MEM_0066,2022-12-08 22:06:55
,visual-trial,29,334530,0.0-29.0,,,,,846.0,,,arrowleft,photo (left arrow)&emsp;&emsp;&emsp;&emsp;drawing (right arrow),perceptual,3000.0,,/static/object_pics/picture_fruit/kiwi.jpg,7000.0,inanimate,photo,1402.3222555855352,True,,MEM,MEM_0066,2022-12-08 22:06:55
,visual-trial,30,339097,0.0-30.0,,,,,824.0,,,arrowleft,photo (left arrow)&emsp;&emsp;&emsp;&emsp;drawing (right arrow),perceptual,3000.0,,/static/object_pics/picture_bird/parrot.jpg,7000.0,animate,photo,739.9502043807948,True,,MEM,MEM_0066,2022-12-08 22:06:55
,visual-trial,31,343496,0.0-31.0,,,,,695.0,,,arrowleft,animate (left arrow)&emsp;&emsp;&emsp;&emsp;inanimate (right arrow),semantic,3000.0,,/static/object_pics/picture_bird/penguin.jpg,7000.0,animate,photo,700.7503402269683,True,,MEM,MEM_0066,2022-12-08 22:06:55
,visual-trial,32,348039,0.0-32.0,,,,,767.0,,,arrowright,animate (left arrow)&emsp;&emsp;&emsp;&emsp;inanimate (right arrow),semantic,3000.0,,/static/object_pics/picture_veggie/garlic.jpg,7000.0,inanimate,photo,772.8528137387665,True,,MEM,MEM_0066,2022-12-08 22:06:55
,visual-trial,33,352519,0.0-33.0,,,,,738.0,,,arrowright,animate (left arrow)&emsp;&emsp;&emsp;&emsp;inanimate (right arrow),semantic,3000.0,,/static/object_pics/picture_fruit/coconut.jpg,7000.0,inanimate,photo,739.0393370522232,True,,MEM,MEM_0066,2022-12-08 22:06:55
,visual-trial,34,357574,0.0-34.0,,,,,1003.0,,,arrowright,photo (left arrow)&emsp;&emsp;&emsp;&emsp;drawing (right arrow),perceptual,3000.0,,/static/object_pics/drawing_sea/dolphin.jpg,7000.0,animate,drawing,1051.76770205544,True,,MEM,MEM_0066,2022-12-08 22:06:55
,visual-trial,35,361927,0.0-35.0,,,,,678.0,,,arrowright,animate (left arrow)&emsp;&emsp;&emsp;&emsp;inanimate (right arrow),semantic,3000.0,,/static/object_pics/picture_veggie/cauliflower.jpg,7000.0,inanimate,photo,672.6018918542447,True,,MEM,MEM_0066,2022-12-08 22:06:55
,visual-trial,36,366568,0.0-36.0,,,,,470.0,,,arrowleft,photo (left arrow)&emsp;&emsp;&emsp;&emsp;drawing (right arrow),perceptual,3000.0,,/static/object_pics/picture_mammal/lion.jpg,7000.0,animate,photo,1168.3435488808304,True,,MEM,MEM_0066,2022-12-08 22:06:55
,visual-trial,37,371210,0.0-37.0,,,,,643.0,,,arrowright,animate (left arrow)&emsp;&emsp;&emsp;&emsp;inanimate (right arrow),semantic,3000.0,,/static/object_pics/picture_fruit/strawberry.jpg,7000.0,inanimate,photo,996.9551526283127,True,,MEM,MEM_0066,2022-12-08 22:06:55
,visual-trial,38,376271,0.0-38.0,,,,,579.0,,,arrowleft,photo (left arrow)&emsp;&emsp;&emsp;&emsp;drawing (right arrow),perceptual,3000.0,,/static/object_pics/picture_bird/turkey.jpg,7000.0,animate,photo,1479.3772914434958,True,,MEM,MEM_0066,2022-12-08 22:06:55
,visual-trial,39,381035,0.0-39.0,,,,,572.0,,,arrowright,animate (left arrow)&emsp;&emsp;&emsp;&emsp;inanimate (right arrow),semantic,3000.0,,/static/object_pics/drawing_insect/snail.jpg,7000.0,animate,drawing,1189.8174533119545,False,,MEM,MEM_0066,2022-12-08 22:06:55
,visual-trial,40,385174,0.0-40.0,,,,,568.0,,,arrowright,photo (left arrow)&emsp;&emsp;&emsp;&emsp;drawing (right arrow),perceptual,3000.0,,/static/object_pics/drawing_sea/seal.jpg,7000.0,animate,drawing,568.9408013307095,True,,MEM,MEM_0066,2022-12-08 22:06:55
,visual-trial,41,389734,0.0-41.0,,,,,701.0,,,arrowleft,animate (left arrow)&emsp;&emsp;&emsp;&emsp;inanimate (right arrow),semantic,3000.0,,/static/object_pics/drawing_insect/mosquito.jpg,7000.0,animate,drawing,858.0622647866512,True,,MEM,MEM_0066,2022-12-08 22:06:55
,html-keyboard-response,42,393622,0.0-42.0,,,,,3884.0,"
        <p>In that last set of trials, you were correct 97% of the time.</p>
        <p>Feel free to take a brief break. In the next set of trials, you will continue with the same task.
        The instructions are displayed below, in case you need a refresher.
        Press the space bar when you are ready to continue.</p>
        <p>In this task, you will see a series of objects. On some trials, your job is to determine
        whether the object shown is a color photograph or a line drawing. On other trials, your job
        is to determine whether the object represented is animate or inanimate.

        <br><br>
        You will know which response to make depending on the initial display, which will say
        ""animate / inanimate"" or ""photo / drawing"".
        <br>
        You will be able to use the left arrow key to report animate/photo and the right arrow key to report inanimate/drawing.
        <br>
        Please respond as quickly as possible, and use your dominant hand to make your responses.
        <br><br>
        You will be able to use the left arrow key to report animate/photo and the right arrow key to report inanimate/drawing.
        <br><br>
        <img src=""/static/instructions_pics/visual_pic.png"" height=""300px"">
        <br>
        In the example in the top row, the correct response is animate (left arrow key). In the example in the bottom row, the correct response is photo (left arrow key).
        <br>
        <br>When you are ready to begin, press the space bar.</p>", ,,,,,,,,,,,,,MEM,MEM_0066,2022-12-08 22:06:55
,visual-trial,43,398302,0.0-43.0,,,,,682.0,,,arrowleft,animate (left arrow)&emsp;&emsp;&emsp;&emsp;inanimate (right arrow),semantic,3000.0,,/static/object_pics/picture_mammal/squirrel.jpg,7000.0,animate,photo,995.5649621889522,True,,MEM,MEM_0066,2022-12-08 22:06:55
,visual-trial,44,403412,0.0-44.0,,,,,766.0,,,arrowright,animate (left arrow)&emsp;&emsp;&emsp;&emsp;inanimate (right arrow),semantic,3000.0,,/static/object_pics/picture_veggie/onions.jpg,7000.0,inanimate,photo,1342.8739247359035,True,,MEM,MEM_0066,2022-12-08 22:06:55
,visual-trial,45,408217,0.0-45.0,,,,,794.0,,,arrowleft,animate (left arrow)&emsp;&emsp;&emsp;&emsp;inanimate (right arrow),semantic,3000.0,,/static/object_pics/drawing_insect/ladybug.jpg,7000.0,animate,drawing,1007.6064061902867,True,,MEM,MEM_0066,2022-12-08 22:06:55
,visual-trial,46,413523,0.0-46.0,,,,,812.0,,,arrowleft,photo (left arrow)&emsp;&emsp;&emsp;&emsp;drawing (right arrow),perceptual,3000.0,,/static/object_pics/drawing_sea/pufferfish.jpg,7000.0,animate,drawing,1490.4691780605208,False,,MEM,MEM_0066,2022-12-08 22:06:55
,visual-trial,47,418199,0.0-47.0,,,,,681.0,,,arrowleft,animate (left arrow)&emsp;&emsp;&emsp;&emsp;inanimate (right arrow),semantic,3000.0,,/static/object_pics/picture_mammal/elephant.jpg,7000.0,animate,photo,992.226244182639,True,,MEM,MEM_0066,2022-12-08 22:06:55
,visual-trial,48,422508,0.0-48.0,,,,,495.0,,,arrowleft,photo (left arrow)&emsp;&emsp;&emsp;&emsp;drawing (right arrow),perceptual,3000.0,,/static/object_pics/picture_fruit/apple.jpg,7000.0,inanimate,photo,812.630751878211,True,,MEM,MEM_0066,2022-12-08 22:06:55
,visual-trial,49,426738,0.0-49.0,,,,,585.0,,,arrowleft,animate (left arrow)&emsp;&emsp;&emsp;&emsp;inanimate (right arrow),semantic,3000.0,,/static/object_pics/drawing_insect/bumble bee.jpg,7000.0,animate,drawing,640.9627246251732,True,,MEM,MEM_0066,2022-12-08 22:06:55
,visual-trial,50,431615,0.0-50.0,,,,,484.0,,,arrowleft,photo (left arrow)&emsp;&emsp;&emsp;&emsp;drawing (right arrow),perceptual,3000.0,,/static/object_pics/picture_fruit/watermelon.jpg,7000.0,inanimate,photo,1390.700765002283,True,,MEM,MEM_0066,2022-12-08 22:06:55
,visual-trial,51,436349,0.0-51.0,,,,,595.0,,,arrowleft,animate (left arrow)&emsp;&emsp;&emsp;&emsp;inanimate (right arrow),semantic,3000.0,,/static/object_pics/drawing_insect/spider.jpg,7000.0,animate,drawing,1137.1914609559308,True,,MEM,MEM_0066,2022-12-08 22:06:55
,visual-trial,52,441204,0.0-52.0,,,,,1233.0,,,arrowleft,animate (left arrow)&emsp;&emsp;&emsp;&emsp;inanimate (right arrow),semantic,3000.0,,/static/object_pics/drawing_insect/mantis.jpg,7000.0,animate,drawing,619.6031987283202,True,,MEM,MEM_0066,2022-12-08 22:06:55
,visual-trial,53,445442,0.0-53.0,,,,,551.0,,,arrowright,animate (left arrow)&emsp;&emsp;&emsp;&emsp;inanimate (right arrow),semantic,3000.0,,/static/object_pics/drawing_clothe/football sneaker.jpg,7000.0,inanimate,drawing,684.5495192071068,True,,MEM,MEM_0066,2022-12-08 22:06:55
,visual-trial,54,450059,0.0-54.0,,,,,427.0,,,arrowleft,photo (left arrow)&emsp;&emsp;&emsp;&emsp;drawing (right arrow),perceptual,3000.0,,/static/object_pics/picture_veggie/lettuce.jpg,7000.0,inanimate,photo,1185.4403758660399,True,,MEM,MEM_0066,2022-12-08 22:06:55
,visual-trial,55,454337,0.0-55.0,,,,,572.0,,,arrowright,photo (left arrow)&emsp;&emsp;&emsp;&emsp;drawing (right arrow),perceptual,3000.0,,/static/object_pics/drawing_clothe/high heels.jpg,7000.0,inanimate,drawing,704.2996529691939,True,,MEM,MEM_0066,2022-12-08 22:06:55
,visual-trial,56,458505,0.0-56.0,,,,,644.0,,,arrowright,animate (left arrow)&emsp;&emsp;&emsp;&emsp;inanimate (right arrow),semantic,3000.0,,/static/object_pics/picture_veggie/cucumber.jpg,7000.0,inanimate,photo,520.029976071079,True,,MEM,MEM_0066,2022-12-08 22:06:55
,visual-trial,57,462838,0.0-57.0,,,,,728.0,,,arrowright,animate (left arrow)&emsp;&emsp;&emsp;&emsp;inanimate (right arrow),semantic,3000.0,,/static/object_pics/picture_fruit/cherry.jpg,7000.0,inanimate,photo,601.87341806918,True,,MEM,MEM_0066,2022-12-08 22:06:55
,visual-trial,58,467502,0.0-58.0,,,,,649.0,,,arrowleft,photo (left arrow)&emsp;&emsp;&emsp;&emsp;drawing (right arrow),perceptual,3000.0,,/static/object_pics/picture_veggie/beetroot.jpg,7000.0,inanimate,photo,1013.0539668666769,True,,MEM,MEM_0066,2022-12-08 22:06:55
,visual-trial,59,471842,0.0-59.0,,,,,689.0,,,arrowleft,animate (left arrow)&emsp;&emsp;&emsp;&emsp;inanimate (right arrow),semantic,3000.0,,/static/object_pics/picture_bird/toucan.jpg,7000.0,animate,photo,649.433820979358,True,,MEM,MEM_0066,2022-12-08 22:06:55
,visual-trial,60,476555,0.0-60.0,,,,,847.0,,,arrowright,animate (left arrow)&emsp;&emsp;&emsp;&emsp;inanimate (right arrow),semantic,3000.0,,/static/object_pics/picture_fruit/melon.jpg,7000.0,inanimate,photo,863.0738229930954,True,,MEM,MEM_0066,2022-12-08 22:06:55
,visual-trial,61,480928,0.0-61.0,,,,,524.0,,,arrowleft,photo (left arrow)&emsp;&emsp;&emsp;&emsp;drawing (right arrow),perceptual,3000.0,,/static/object_pics/picture_fruit/lemon.jpg,7000.0,inanimate,photo,844.8746367260292,True,,MEM,MEM_0066,2022-12-08 22:06:55
,visual-trial,62,485311,0.0-62.0,,,,,514.0,,,arrowright,photo (left arrow)&emsp;&emsp;&emsp;&emsp;drawing (right arrow),perceptual,3000.0,,/static/object_pics/drawing_insect/grasshopper.jpg,7000.0,animate,drawing,868.8737576982481,True,,MEM,MEM_0066,2022-12-08 22:06:55
,visual-trial,63,489644,0.0-63.0,,,,,596.0,,,arrowleft,photo (left arrow)&emsp;&emsp;&emsp;&emsp;drawing (right arrow),perceptual,3000.0,,/static/object_pics/picture_fruit/apricot.jpg,7000.0,inanimate,photo,734.2061092274117,True,,MEM,MEM_0066,2022-12-08 22:06:55
,visual-trial,64,493998,0.0-64.0,,,,,488.0,,,arrowright,photo (left arrow)&emsp;&emsp;&emsp;&emsp;drawing (right arrow),perceptual,3000.0,,/static/object_pics/drawing_clothe/belt.jpg,7000.0,inanimate,drawing,862.8049164446343,True,,MEM,MEM_0066,2022-12-08 22:06:55
,visual-trial,65,498434,0.0-65.0,,,,,565.0,,,arrowleft,photo (left arrow)&emsp;&emsp;&emsp;&emsp;drawing (right arrow),perceptual,3000.0,,/static/object_pics/picture_veggie/tomato.jpg,7000.0,inanimate,photo,868.8757687244921,True,,MEM,MEM_0066,2022-12-08 22:06:55
,visual-trial,66,502654,0.0-66.0,,,,,511.0,,,arrowleft,animate (left arrow)&emsp;&emsp;&emsp;&emsp;inanimate (right arrow),semantic,3000.0,,/static/object_pics/picture_mammal/camel.jpg,7000.0,animate,photo,705.1054491014896,True,,MEM,MEM_0066,2022-12-08 22:06:55
,visual-trial,67,507318,0.0-67.0,,,,,536.0,,,arrowright,photo (left arrow)&emsp;&emsp;&emsp;&emsp;drawing (right arrow),perceptual,3000.0,,/static/object_pics/drawing_insect/fly.jpg,7000.0,animate,drawing,1124.8081871821578,True,,MEM,MEM_0066,2022-12-08 22:06:55
,visual-trial,68,512296,0.0-68.0,,,,,771.0,,,arrowleft,animate (left arrow)&emsp;&emsp;&emsp;&emsp;inanimate (right arrow),semantic,3000.0,,/static/object_pics/drawing_sea/jellyfish.jpg,7000.0,animate,drawing,1205.6927829302858,True,,MEM,MEM_0066,2022-12-08 22:06:55
,visual-trial,69,516819,0.0-69.0,,,,,575.0,,,arrowright,photo (left arrow)&emsp;&emsp;&emsp;&emsp;drawing (right arrow),perceptual,3000.0,,/static/object_pics/drawing_sea/seaturtle.jpg,7000.0,animate,drawing,943.3575096278507,True,,MEM,MEM_0066,2022-12-08 22:06:55
,visual-trial,70,521093,0.0-70.0,,,,,665.0,,,arrowright,animate (left arrow)&emsp;&emsp;&emsp;&emsp;inanimate (right arrow),semantic,3000.0,,/static/object_pics/drawing_electronic/radio.jpg,7000.0,inanimate,drawing,606.483682330305,True,,MEM,MEM_0066,2022-12-08 22:06:55
,visual-trial,71,525897,0.0-71.0,,,,,710.0,,,arrowright,photo (left arrow)&emsp;&emsp;&emsp;&emsp;drawing (right arrow),perceptual,3000.0,,/static/object_pics/drawing_insect/centipede.jpg,7000.0,animate,drawing,1091.9974959058936,True,,MEM,MEM_0066,2022-12-08 22:06:55
,visual-trial,72,530830,0.0-72.0,,,,,799.0,,,arrowright,photo (left arrow)&emsp;&emsp;&emsp;&emsp;drawing (right arrow),perceptual,3000.0,,/static/object_pics/drawing_clothe/jeans.jpg,7000.0,inanimate,drawing,1132.6314030051376,True,,MEM,MEM_0066,2022-12-08 22:06:55
,visual-trial,73,535329,0.0-73.0,,,,,544.0,,,arrowright,photo (left arrow)&emsp;&emsp;&emsp;&emsp;drawing (right arrow),perceptual,3000.0,,/static/object_pics/drawing_insect/dragonfly.jpg,7000.0,animate,drawing,953.2137226721031,True,,MEM,MEM_0066,2022-12-08 22:06:55
,visual-trial,74,540083,0.0-74.0,,,,,659.0,,,arrowright,animate (left arrow)&emsp;&emsp;&emsp;&emsp;inanimate (right arrow),semantic,3000.0,,/static/object_pics/drawing_electronic/calculator.jpg,7000.0,inanimate,drawing,1093.2336161780777,True,,MEM,MEM_0066,2022-12-08 22:06:55
,html-keyboard-response,75,541681,0.0-75.0,,,,,1597.0,"
        <p>In that last set of trials, you were correct 97% of the time.</p>
        <p>Feel free to take a brief break. In the next set of trials, you will continue with the same task.
        The instructions are displayed below, in case you need a refresher.
        Press the space bar when you are ready to continue.</p>
        <p>In this task, you will see a series of objects. On some trials, your job is to determine
        whether the object shown is a color photograph or a line drawing. On other trials, your job
        is to determine whether the object represented is animate or inanimate.

        <br><br>
        You will know which response to make depending on the initial display, which will say
        ""animate / inanimate"" or ""photo / drawing"".
        <br>
        You will be able to use the left arrow key to report animate/photo and the right arrow key to report inanimate/drawing.
        <br>
        Please respond as quickly as possible, and use your dominant hand to make your responses.
        <br><br>
        You will be able to use the left arrow key to report animate/photo and the right arrow key to report inanimate/drawing.
        <br><br>
        <img src=""/static/instructions_pics/visual_pic.png"" height=""300px"">
        <br>
        In the example in the top row, the correct response is animate (left arrow key). In the example in the bottom row, the correct response is photo (left arrow key).
        <br>
        <br>When you are ready to begin, press the space bar.</p>", ,,,,,,,,,,,,,MEM,MEM_0066,2022-12-08 22:06:55
,visual-trial,76,546598,0.0-76.0,,,,,627.0,,,arrowright,animate (left arrow)&emsp;&emsp;&emsp;&emsp;inanimate (right arrow),semantic,3000.0,,/static/object_pics/drawing_electronic/printer.jpg,7000.0,inanimate,drawing,1288.2615523704685,True,,MEM,MEM_0066,2022-12-08 22:06:55
,visual-trial,77,551568,0.0-77.0,,,,,518.0,,,arrowleft,photo (left arrow)&emsp;&emsp;&emsp;&emsp;drawing (right arrow),perceptual,3000.0,,/static/object_pics/picture_fruit/orange.jpg,7000.0,inanimate,photo,1449.607333657601,True,,MEM,MEM_0066,2022-12-08 22:06:55
,visual-trial,78,556210,0.0-78.0,,,,,619.0,,,arrowright,animate (left arrow)&emsp;&emsp;&emsp;&emsp;inanimate (right arrow),semantic,3000.0,,/static/object_pics/picture_veggie/asparagus.jpg,7000.0,inanimate,photo,1019.4002083253588,True,,MEM,MEM_0066,2022-12-08 22:06:55
,visual-trial,79,561145,0.0-79.0,,,,,570.0,,,arrowright,animate (left arrow)&emsp;&emsp;&emsp;&emsp;inanimate (right arrow),semantic,3000.0,,/static/object_pics/picture_veggie/artichoke.jpg,7000.0,inanimate,photo,1363.888224022749,True,,MEM,MEM_0066,2022-12-08 22:06:55
,visual-trial,80,565542,0.0-80.0,,,,,595.0,,,arrowright,animate (left arrow)&emsp;&emsp;&emsp;&emsp;inanimate (right arrow),semantic,3000.0,,/static/object_pics/drawing_electronic/gamepad.jpg,7000.0,inanimate,drawing,800.7719615414348,True,,MEM,MEM_0066,2022-12-08 22:06:55
,visual-trial,81,569845,0.0-81.0,,,,,551.0,,,arrowleft,animate (left arrow)&emsp;&emsp;&emsp;&emsp;inanimate (right arrow),semantic,3000.0,,/static/object_pics/drawing_insect/butterfly.jpg,7000.0,animate,drawing,747.2669699128065,True,,MEM,MEM_0066,2022-12-08 22:06:55
,visual-trial,82,574149,0.0-82.0,,,,,577.0,,,arrowright,animate (left arrow)&emsp;&emsp;&emsp;&emsp;inanimate (right arrow),semantic,3000.0,,/static/object_pics/drawing_electronic/satellite dish.jpg,7000.0,inanimate,drawing,723.5510696356911,True,,MEM,MEM_0066,2022-12-08 22:06:55
,visual-trial,83,579632,0.0-83.0,,,,,1045.0,,,arrowleft,animate (left arrow)&emsp;&emsp;&emsp;&emsp;inanimate (right arrow),semantic,3000.0,,/static/object_pics/picture_bird/eagle.jpg,7000.0,animate,photo,1436.3058702001094,True,,MEM,MEM_0066,2022-12-08 22:06:55
,visual-trial,84,584182,0.0-84.0,,,,,534.0,,,arrowright,photo (left arrow)&emsp;&emsp;&emsp;&emsp;drawing (right arrow),perceptual,3000.0,,/static/object_pics/drawing_sea/eel.jpg,7000.0,animate,drawing,1014.0557685269482,True,,MEM,MEM_0066,2022-12-08 22:06:55
,visual-trial,85,588468,0.0-85.0,,,,,544.0,,,arrowleft,animate (left arrow)&emsp;&emsp;&emsp;&emsp;inanimate (right arrow),semantic,3000.0,,/static/object_pics/drawing_insect/ant.jpg,7000.0,animate,drawing,740.4092930443504,True,,MEM,MEM_0066,2022-12-08 22:06:55
,visual-trial,86,592550,0.0-86.0,,,,,526.0,,,arrowleft,photo (left arrow)&emsp;&emsp;&emsp;&emsp;drawing (right arrow),perceptual,3000.0,,/static/object_pics/picture_fruit/papaya.jpg,7000.0,inanimate,photo,554.0449264369897,True,,MEM,MEM_0066,2022-12-08 22:06:55
,visual-trial,87,596704,0.0-87.0,,,,,472.0,,,arrowleft,photo (left arrow)&emsp;&emsp;&emsp;&emsp;drawing (right arrow),perceptual,3000.0,,/static/object_pics/picture_bird/peacock.jpg,7000.0,animate,photo,680.8660170421618,True,,MEM,MEM_0066,2022-12-08 22:06:55
,visual-trial,88,601715,0.0-88.0,,,,,525.0,,,arrowright,photo (left arrow)&emsp;&emsp;&emsp;&emsp;drawing (right arrow),perceptual,3000.0,,/static/object_pics/drawing_sea/seahorse.jpg,7000.0,animate,drawing,1483.5375362632926,True,,MEM,MEM_0066,2022-12-08 22:06:55
,visual-trial,89,606509,0.0-89.0,,,,,537.0,,,arrowright,photo (left arrow)&emsp;&emsp;&emsp;&emsp;drawing (right arrow),perceptual,3000.0,,/static/object_pics/drawing_clothe/sock.jpg,7000.0,inanimate,drawing,1253.1942228472228,True,,MEM,MEM_0066,2022-12-08 22:06:55
,visual-trial,90,611516,0.0-90.0,,,,,805.0,,,arrowright,animate (left arrow)&emsp;&emsp;&emsp;&emsp;inanimate (right arrow),semantic,3000.0,,/static/object_pics/picture_veggie/corn.jpg,7000.0,inanimate,photo,1200.7138172515197,True,,MEM,MEM_0066,2022-12-08 22:06:55
,visual-trial,91,616377,0.0-91.0,,,,,1066.0,,,arrowright,photo (left arrow)&emsp;&emsp;&emsp;&emsp;drawing (right arrow),perceptual,3000.0,,/static/object_pics/drawing_sea/killer whale.jpg,7000.0,animate,drawing,791.9221190022421,True,,MEM,MEM_0066,2022-12-08 22:06:55
,visual-trial,92,621237,0.0-92.0,,,,,533.0,,,arrowright,animate (left arrow)&emsp;&emsp;&emsp;&emsp;inanimate (right arrow),semantic,3000.0,,/static/object_pics/drawing_insect/worm.jpg,7000.0,animate,drawing,1323.4741888406616,False,,MEM,MEM_0066,2022-12-08 22:06:55
,visual-trial,93,625453,0.0-93.0,,,,,576.0,,,arrowright,animate (left arrow)&emsp;&emsp;&emsp;&emsp;inanimate (right arrow),semantic,3000.0,,/static/object_pics/drawing_electronic/microphone.jpg,7000.0,inanimate,drawing,637.738911069017,True,,MEM,MEM_0066,2022-12-08 22:06:55
,visual-trial,94,629705,0.0-94.0,,,,,558.0,,,arrowright,photo (left arrow)&emsp;&emsp;&emsp;&emsp;drawing (right arrow),perceptual,3000.0,,/static/object_pics/drawing_sea/crab.jpg,7000.0,animate,drawing,693.7241256717955,True,,MEM,MEM_0066,2022-12-08 22:06:55
,visual-trial,95,634353,0.0-95.0,,,,,962.0,,,arrowleft,animate (left arrow)&emsp;&emsp;&emsp;&emsp;inanimate (right arrow),semantic,3000.0,,/static/object_pics/drawing_sea/octopus.jpg,7000.0,animate,drawing,683.7820102689698,True,,MEM,MEM_0066,2022-12-08 22:06:55
,visual-trial,96,638874,0.0-96.0,,,,,679.0,,,arrowright,animate (left arrow)&emsp;&emsp;&emsp;&emsp;inanimate (right arrow),semantic,3000.0,,/static/object_pics/drawing_clothe/sport t-shirt.jpg,7000.0,inanimate,drawing,836.4034036734876,True,,MEM,MEM_0066,2022-12-08 22:06:55
,visual-trial,97,643875,0.0-97.0,,,,,621.0,,,arrowright,animate (left arrow)&emsp;&emsp;&emsp;&emsp;inanimate (right arrow),semantic,3000.0,,/static/object_pics/drawing_clothe/dress.jpg,7000.0,inanimate,drawing,1379.4171326800981,True,,MEM,MEM_0066,2022-12-08 22:06:55
,visual-trial,98,648365,0.0-98.0,,,,,564.0,,,arrowright,animate (left arrow)&emsp;&emsp;&emsp;&emsp;inanimate (right arrow),semantic,3000.0,,/static/object_pics/picture_fruit/pineapple.jpg,7000.0,inanimate,photo,922.8159016966067,True,,MEM,MEM_0066,2022-12-08 22:06:55
,visual-trial,99,652409,0.0-99.0,,,,,540.0,,,arrowleft,animate (left arrow)&emsp;&emsp;&emsp;&emsp;inanimate (right arrow),semantic,3000.0,,/static/object_pics/picture_bird/duck.jpg,7000.0,animate,photo,501.1556806696904,True,,MEM,MEM_0066,2022-12-08 22:06:55
,visual-trial,100,656824,0.0-100.0,,,,,539.0,,,arrowright,photo (left arrow)&emsp;&emsp;&emsp;&emsp;drawing (right arrow),perceptual,3000.0,,/static/object_pics/drawing_clothe/tie.jpg,7000.0,inanimate,drawing,873.1704000351424,True,,MEM,MEM_0066,2022-12-08 22:06:55
,visual-trial,101,660910,0.0-101.0,,,,,528.0,,,arrowleft,photo (left arrow)&emsp;&emsp;&emsp;&emsp;drawing (right arrow),perceptual,3000.0,,/static/object_pics/picture_fruit/banana.jpg,7000.0,inanimate,photo,555.7361028753729,True,,MEM,MEM_0066,2022-12-08 22:06:55
,visual-trial,102,665411,0.0-102.0,,,,,485.0,,,arrowleft,photo (left arrow)&emsp;&emsp;&emsp;&emsp;drawing (right arrow),perceptual,3000.0,,/static/object_pics/picture_mammal/sheep.jpg,7000.0,animate,photo,1014.1200806571611,True,,MEM,MEM_0066,2022-12-08 22:06:55
,visual-trial,103,669668,0.0-103.0,,,,,535.0,,,arrowright,animate (left arrow)&emsp;&emsp;&emsp;&emsp;inanimate (right arrow),semantic,3000.0,,/static/object_pics/picture_fruit/pear.jpg,7000.0,inanimate,photo,718.4809121390339,True,,MEM,MEM_0066,2022-12-08 22:06:55
,visual-trial,104,673796,0.0-104.0,,,,,503.0,,,arrowleft,photo (left arrow)&emsp;&emsp;&emsp;&emsp;drawing (right arrow),perceptual,3000.0,,/static/object_pics/picture_mammal/horse.jpg,7000.0,animate,photo,621.9254337590435,True,,MEM,MEM_0066,2022-12-08 22:06:55
,visual-trial,105,678497,0.0-105.0,,,,,488.0,,,arrowleft,photo (left arrow)&emsp;&emsp;&emsp;&emsp;drawing (right arrow),perceptual,3000.0,,/static/object_pics/picture_mammal/rabbit.jpg,7000.0,animate,photo,1212.3670124081473,True,,MEM,MEM_0066,2022-12-08 22:06:55
,visual-trial,106,683016,0.0-106.0,,,,,811.0,,,arrowleft,animate (left arrow)&emsp;&emsp;&emsp;&emsp;inanimate (right arrow),semantic,3000.0,,/static/object_pics/drawing_insect/scorpion.jpg,7000.0,animate,drawing,707.6423895841215,True,,MEM,MEM_0066,2022-12-08 22:06:55
,visual-trial,107,687678,0.0-107.0,,,,,593.0,,,arrowleft,photo (left arrow)&emsp;&emsp;&emsp;&emsp;drawing (right arrow),perceptual,3000.0,,/static/object_pics/picture_mammal/antelope.jpg,7000.0,animate,photo,1065.130123798991,True,,MEM,MEM_0066,2022-12-08 22:06:55
,html-keyboard-response,108,689265,0.0-108.0,,,,,1586.0,"
        <p>In that last set of trials, you were correct 97% of the time.</p>
        <p>Feel free to take a brief break. In the next set of trials, you will continue with the same task.
        The instructions are displayed below, in case you need a refresher.
        Press the space bar when you are ready to continue.</p>
        <p>In this task, you will see a series of objects. On some trials, your job is to determine
        whether the object shown is a color photograph or a line drawing. On other trials, your job
        is to determine whether the object represented is animate or inanimate.

        <br><br>
        You will know which response to make depending on the initial display, which will say
        ""animate / inanimate"" or ""photo / drawing"".
        <br>
        You will be able to use the left arrow key to report animate/photo and the right arrow key to report inanimate/drawing.
        <br>
        Please respond as quickly as possible, and use your dominant hand to make your responses.
        <br><br>
        You will be able to use the left arrow key to report animate/photo and the right arrow key to report inanimate/drawing.
        <br><br>
        <img src=""/static/instructions_pics/visual_pic.png"" height=""300px"">
        <br>
        In the example in the top row, the correct response is animate (left arrow key). In the example in the bottom row, the correct response is photo (left arrow key).
        <br>
        <br>When you are ready to begin, press the space bar.</p>", ,,,,,,,,,,,,,MEM,MEM_0066,2022-12-08 22:06:55
,visual-trial,109,694255,0.0-109.0,,,,,771.0,,,arrowleft,animate (left arrow)&emsp;&emsp;&emsp;&emsp;inanimate (right arrow),semantic,3000.0,,/static/object_pics/drawing_sea/starfish.jpg,7000.0,animate,drawing,1218.4370841996486,True,,MEM,MEM_0066,2022-12-08 22:06:55
,visual-trial,110,699387,0.0-110.0,,,,,1103.0,,,arrowleft,animate (left arrow)&emsp;&emsp;&emsp;&emsp;inanimate (right arrow),semantic,3000.0,,/static/object_pics/picture_mammal/bear.jpg,7000.0,animate,photo,1025.3332412013292,True,,MEM,MEM_0066,2022-12-08 22:06:55
,visual-trial,111,703717,0.0-111.0,,,,,602.0,,,arrowleft,photo (left arrow)&emsp;&emsp;&emsp;&emsp;drawing (right arrow),perceptual,3000.0,,/static/object_pics/picture_veggie/potato.jpg,7000.0,inanimate,photo,726.13990700317,True,,MEM,MEM_0066,2022-12-08 22:06:55
,visual-trial,112,708415,0.0-112.0,,,,,569.0,,,arrowright,photo (left arrow)&emsp;&emsp;&emsp;&emsp;drawing (right arrow),perceptual,3000.0,,/static/object_pics/drawing_electronic/toaster.jpg,7000.0,inanimate,drawing,1127.046241945597,True,,MEM,MEM_0066,2022-12-08 22:06:55
,visual-trial,113,713059,0.0-113.0,,,,,1117.0,,,arrowright,photo (left arrow)&emsp;&emsp;&emsp;&emsp;drawing (right arrow),perceptual,3000.0,,/static/object_pics/drawing_insect/cockroach.jpg,7000.0,animate,drawing,526.7155914130906,True,,MEM,MEM_0066,2022-12-08 22:06:55
,visual-trial,114,717946,0.0-114.0,,,,,982.0,,,arrowright,photo (left arrow)&emsp;&emsp;&emsp;&emsp;drawing (right arrow),perceptual,3000.0,,/static/object_pics/drawing_sea/swordfish.jpg,7000.0,animate,drawing,902.6713079182091,True,,MEM,MEM_0066,2022-12-08 22:06:55
,visual-trial,115,723109,0.0-115.0,,,,,1069.0,,,arrowleft,photo (left arrow)&emsp;&emsp;&emsp;&emsp;drawing (right arrow),perceptual,3000.0,,/static/object_pics/picture_mammal/bison.jpg,7000.0,animate,photo,1091.9120266409668,True,,MEM,MEM_0066,2022-12-08 22:06:55
,visual-trial,116,727353,0.0-116.0,,,,,638.0,,,arrowright,photo (left arrow)&emsp;&emsp;&emsp;&emsp;drawing (right arrow),perceptual,3000.0,,/static/object_pics/drawing_clothe/hoodie.jpg,7000.0,inanimate,drawing,604.1722196269163,True,,MEM,MEM_0066,2022-12-08 22:06:55
,visual-trial,117,732405,0.0-117.0,,,,,935.0,,,arrowright,photo (left arrow)&emsp;&emsp;&emsp;&emsp;drawing (right arrow),perceptual,3000.0,,/static/object_pics/drawing_clothe/shirt.jpg,7000.0,inanimate,drawing,1114.2441109183246,True,,MEM,MEM_0066,2022-12-08 22:06:55
,visual-trial,118,737061,0.0-118.0,,,,,526.0,,,arrowleft,animate (left arrow)&emsp;&emsp;&emsp;&emsp;inanimate (right arrow),semantic,3000.0,,/static/object_pics/picture_mammal/bull.jpg,7000.0,animate,photo,1128.443259494747,True,,MEM,MEM_0066,2022-12-08 22:06:55
,visual-trial,119,741998,0.0-119.0,,,,,724.0,,,arrowright,photo (left arrow)&emsp;&emsp;&emsp;&emsp;drawing (right arrow),perceptual,3000.0,,/static/object_pics/drawing_electronic/keyboard.jpg,7000.0,inanimate,drawing,1212.052648697364,True,,MEM,MEM_0066,2022-12-08 22:06:55
,visual-trial,120,747152,0.0-120.0,,,,,1017.0,,,arrowright,photo (left arrow)&emsp;&emsp;&emsp;&emsp;drawing (right arrow),perceptual,3000.0,,/static/object_pics/drawing_sea/mantaray.jpg,7000.0,animate,drawing,1135.9340792480828,True,,MEM,MEM_0066,2022-12-08 22:06:55
,visual-trial,121,752145,0.0-121.0,,,,,610.0,,,arrowright,photo (left arrow)&emsp;&emsp;&emsp;&emsp;drawing (right arrow),perceptual,3000.0,,/static/object_pics/drawing_electronic/coffee maker.jpg,7000.0,inanimate,drawing,1381.44731015754,True,,MEM,MEM_0066,2022-12-08 22:06:55
,visual-trial,122,756581,0.0-122.0,,,,,816.0,,,arrowleft,photo (left arrow)&emsp;&emsp;&emsp;&emsp;drawing (right arrow),perceptual,3000.0,,/static/object_pics/picture_bird/canary.jpg,7000.0,animate,photo,617.5427872176278,True,,MEM,MEM_0066,2022-12-08 22:06:55
,visual-trial,123,761604,0.0-123.0,,,,,604.0,,,arrowright,photo (left arrow)&emsp;&emsp;&emsp;&emsp;drawing (right arrow),perceptual,3000.0,,/static/object_pics/drawing_electronic/computer mouse.jpg,7000.0,inanimate,drawing,1416.6305163416596,True,,MEM,MEM_0066,2022-12-08 22:06:55
,visual-trial,124,766272,0.0-124.0,,,,,670.0,,,arrowright,animate (left arrow)&emsp;&emsp;&emsp;&emsp;inanimate (right arrow),semantic,3000.0,,/static/object_pics/drawing_electronic/handmixer.jpg,7000.0,inanimate,drawing,996.4224750491857,True,,MEM,MEM_0066,2022-12-08 22:06:55
,visual-trial,125,771655,0.0-125.0,,,,,920.0,,,arrowleft,animate (left arrow)&emsp;&emsp;&emsp;&emsp;inanimate (right arrow),semantic,3000.0,,/static/object_pics/drawing_sea/shrimp.jpg,7000.0,animate,drawing,1460.5452270985156,True,,MEM,MEM_0066,2022-12-08 22:06:55
,visual-trial,126,776019,0.0-126.0,,,,,442.0,,,arrowleft,photo (left arrow)&emsp;&emsp;&emsp;&emsp;drawing (right arrow),perceptual,3000.0,,/static/object_pics/picture_bird/pelican.jpg,7000.0,animate,photo,919.1605903863498,True,,MEM,MEM_0066,2022-12-08 22:06:55
,visual-trial,127,780612,0.0-127.0,,,,,527.0,,,arrowright,photo (left arrow)&emsp;&emsp;&emsp;&emsp;drawing (right arrow),perceptual,3000.0,,/static/object_pics/drawing_electronic/laptop.jpg,7000.0,inanimate,drawing,1064.1759702808167,True,,MEM,MEM_0066,2022-12-08 22:06:55
,visual-trial,128,784836,0.0-128.0,,,,,435.0,,,arrowleft,photo (left arrow)&emsp;&emsp;&emsp;&emsp;drawing (right arrow),perceptual,3000.0,,/static/object_pics/picture_bird/hen.jpg,7000.0,animate,photo,786.1866589523106,True,,MEM,MEM_0066,2022-12-08 22:06:55
,visual-trial,129,789484,0.0-129.0,,,,,653.0,,,arrowleft,animate (left arrow)&emsp;&emsp;&emsp;&emsp;inanimate (right arrow),semantic,3000.0,,/static/object_pics/picture_bird/flamingo.jpg,7000.0,animate,photo,993.7866513045086,True,,MEM,MEM_0066,2022-12-08 22:06:55
,visual-trial,130,794478,0.0-130.0,,,,,607.0,,,arrowright,animate (left arrow)&emsp;&emsp;&emsp;&emsp;inanimate (right arrow),semantic,3000.0,,/static/object_pics/picture_veggie/pumpkin.jpg,7000.0,inanimate,photo,1385.4431908243187,True,,MEM,MEM_0066,2022-12-08 22:06:55
,visual-trial,131,798715,0.0-131.0,,,,,679.0,,,arrowleft,animate (left arrow)&emsp;&emsp;&emsp;&emsp;inanimate (right arrow),semantic,3000.0,,/static/object_pics/picture_bird/ostrich.jpg,7000.0,animate,photo,556.5872875602452,True,,MEM,MEM_0066,2022-12-08 22:06:55
,visual-trial,132,803638,0.0-132.0,,,,,475.0,,,arrowleft,photo (left arrow)&emsp;&emsp;&emsp;&emsp;drawing (right arrow),perceptual,3000.0,,/static/object_pics/picture_mammal/giraffe.jpg,7000.0,animate,photo,1444.3422691274097,True,,MEM,MEM_0066,2022-12-08 22:06:55
,visual-trial,133,808095,0.0-133.0,,,,,779.0,,,arrowright,animate (left arrow)&emsp;&emsp;&emsp;&emsp;inanimate (right arrow),semantic,3000.0,,/static/object_pics/picture_veggie/pepper.jpg,7000.0,inanimate,photo,676.0479000766775,True,,MEM,MEM_0066,2022-12-08 22:06:55
,visual-trial,134,813358,0.0-134.0,,,,,844.0,,,arrowright,animate (left arrow)&emsp;&emsp;&emsp;&emsp;inanimate (right arrow),semantic,3000.0,,/static/object_pics/picture_veggie/carrot.jpg,7000.0,inanimate,photo,1418.1095621757404,True,,MEM,MEM_0066,2022-12-08 22:06:55
,visual-trial,135,818486,0.0-135.0,,,,,641.0,,,arrowleft,photo (left arrow)&emsp;&emsp;&emsp;&emsp;drawing (right arrow),perceptual,3000.0,,/static/object_pics/picture_bird/hummingbird.jpg,7000.0,animate,photo,1485.6463942186517,True,,MEM,MEM_0066,2022-12-08 22:06:55
,visual-trial,136,822887,0.0-136.0,,,,,551.0,,,arrowleft,animate (left arrow)&emsp;&emsp;&emsp;&emsp;inanimate (right arrow),semantic,3000.0,,/static/object_pics/picture_bird/owl.jpg,7000.0,animate,photo,848.4210141041121,True,,MEM,MEM_0066,2022-12-08 22:06:55
,visual-trial,137,827133,0.0-137.0,,,,,678.0,,,arrowright,photo (left arrow)&emsp;&emsp;&emsp;&emsp;drawing (right arrow),perceptual,3000.0,,/static/object_pics/picture_veggie/aubergine.jpg,7000.0,inanimate,photo,566.5280931724461,False,,MEM,MEM_0066,2022-12-08 22:06:55
,visual-trial,138,832172,0.0-138.0,,,,,739.0,,,arrowleft,photo (left arrow)&emsp;&emsp;&emsp;&emsp;drawing (right arrow),perceptual,3000.0,,/static/object_pics/picture_bird/vulture.jpg,7000.0,animate,photo,1298.437666858193,True,,MEM,MEM_0066,2022-12-08 22:06:55
,visual-trial,139,836414,0.0-139.0,,,,,578.0,,,arrowleft,animate (left arrow)&emsp;&emsp;&emsp;&emsp;inanimate (right arrow),semantic,3000.0,,/static/object_pics/picture_mammal/wolf.jpg,7000.0,animate,photo,660.443300590859,True,,MEM,MEM_0066,2022-12-08 22:06:55
,visual-trial,140,841464,0.0-140.0,,,,,1057.0,,,arrowleft,photo (left arrow)&emsp;&emsp;&emsp;&emsp;drawing (right arrow),perceptual,3000.0,,/static/object_pics/picture_fruit/grapes.jpg,7000.0,inanimate,photo,992.0361752206286,True,,MEM,MEM_0066,2022-12-08 22:06:55
,html-keyboard-response,141,844299,0.0-141.0,,,,,2835.0,"
      <p>Thank you for your participation!</p>
      The goal of this study is to replicate previous findings that the timing of responses in memory-dependent tasks
      is rhythmic in nature (compared to the timing of responses in memory-independent tasks).
      You performed the memory-independent tasks in this study.
      <br>
      Your participation will allow us to better understand how memory works.
      Please do not share this information with other potential participants.
      <br>
      Press the space bar to continue.</p>", ,,,,,,,,,,,,,MEM,MEM_0066,2022-12-08 22:06:55
