success,trial_type,trial_index,time_elapsed,internal_node_id,timeout,failed_images,failed_audio,failed_video,rt,stimulus,response,key,instruction,instruction_class,instruction_duration,prompt,object,object_duration,animacy,style,jitter,accurate,question_order,exp,subjectId,date
True,fullscreen,0,2949,0.0-0.0,,,,,,,,,,,,,,,,,,,,MEM,MEM_0076,2022-12-08 22:26:21
True,preload,1,7620,0.0-1.0,False,[],[],[],,,,,,,,,,,,,,,,MEM,MEM_0076,2022-12-08 22:26:21
,html-keyboard-response,2,80823,0.0-2.0,,,,,73201.0,"
      <p>In this task, you will see a series of objects. On some trials, your job is to determine
      whether the object shown is a color photograph or a line drawing. On other trials, your job
      is to determine whether the object represented is animate or inanimate.

      <br><br>
      You will know which response to make depending on the initial display, which will say
      ""animate / inanimate"" or ""photo / drawing"".
      <br>
      <br>
      You will be able to use the left arrow key to report animate/photo and the right arrow key to report inanimate/drawing.
      <br>
      Please respond as quickly as possible, and use your dominant hand to make your responses.
      <br><br>
      <img src=""/static/instructions_pics/visual_pic.png"" height=""300px"">
      <br>
      In the example in the top row, the correct response is animate (left arrow key). In the example in the bottom row, the correct response is photo (left arrow key).
      <br>
      <br>You will first do some practice trials. When you are ready to begin, press the space bar.</p>", ,,,,,,,,,,,,,MEM,MEM_0076,2022-12-08 22:26:21
,visual-trial,3,87975,0.0-3.0,,,,,2884.0,,,arrowleft,animate (left arrow)&emsp;&emsp;&emsp;&emsp;inanimate (right arrow),semantic,3000.0,,/static/for_instructions/object_pics/drawing_bird/heron.jpg,7000.0,animate,drawing,1259.9393749181454,True,,MEM,MEM_0076,2022-12-08 22:26:21
,visual-trial,4,93081,0.0-4.0,,,,,1206.0,,,arrowleft,photo (left arrow)&emsp;&emsp;&emsp;&emsp;drawing (right arrow),perceptual,3000.0,,/static/for_instructions/object_pics/picture_electronic/flashlight.jpg,7000.0,inanimate,photo,893.7985563558411,True,,MEM,MEM_0076,2022-12-08 22:26:21
,visual-trial,5,99362,0.0-5.0,,,,,1829.0,,,arrowright,animate (left arrow)&emsp;&emsp;&emsp;&emsp;inanimate (right arrow),semantic,3000.0,,/static/for_instructions/object_pics/drawing_clothe/hockey helmet.jpg,7000.0,inanimate,drawing,1446.4282188816205,True,,MEM,MEM_0076,2022-12-08 22:26:21
,visual-trial,6,104788,0.0-6.0,,,,,1244.0,,,arrowleft,photo (left arrow)&emsp;&emsp;&emsp;&emsp;drawing (right arrow),perceptual,3000.0,,/static/for_instructions/object_pics/picture_veggie/avocado.jpg,7000.0,inanimate,photo,1175.1233610890267,True,,MEM,MEM_0076,2022-12-08 22:26:21
,survey-multi-choice,7,110591,0.0-7.0-0.0,,,,,5800.0,,"{'Style': 'True', 'Animacy': 'True'}",,,,,,,,,,,,"[0, 1]",MEM,MEM_0076,2022-12-08 22:26:21
,html-keyboard-response,8,112828,0.0-8.0,,,,,2227.0,"
      <p>Great job! Now you'll continue onto doing the main task.
      You will have the opportunity to take brief breaks at various points.
      Good luck!<br>Press the space bar to continue.</p>", ,,,,,,,,,,,,,MEM,MEM_0076,2022-12-08 22:26:21
True,fullscreen,9,114994,0.0-9.0,,,,,,,,,,,,,,,,,,,,MEM,MEM_0076,2022-12-08 22:26:21
,visual-trial,10,121588,0.0-10.0,,,,,3010.0,,,arrowleft,animate (left arrow)&emsp;&emsp;&emsp;&emsp;inanimate (right arrow),semantic,3000.0,,/static/object_pics/picture_veggie/pumpkin.jpg,7000.0,inanimate,photo,578.5670627395458,False,,MEM,MEM_0076,2022-12-08 22:26:21
,visual-trial,11,126968,0.0-11.0,,,,,1252.0,,,arrowright,photo (left arrow)&emsp;&emsp;&emsp;&emsp;drawing (right arrow),perceptual,3000.0,,/static/object_pics/drawing_fruit/grapes.jpg,7000.0,inanimate,drawing,1118.7075556587783,True,,MEM,MEM_0076,2022-12-08 22:26:21
,visual-trial,12,132502,0.0-12.0,,,,,1566.0,,,arrowright,photo (left arrow)&emsp;&emsp;&emsp;&emsp;drawing (right arrow),perceptual,3000.0,,/static/object_pics/drawing_mammal/wolf.jpg,7000.0,animate,drawing,959.9964617472112,True,,MEM,MEM_0076,2022-12-08 22:26:21
,visual-trial,13,137304,0.0-13.0,,,,,912.0,,,arrowright,photo (left arrow)&emsp;&emsp;&emsp;&emsp;drawing (right arrow),perceptual,3000.0,,/static/object_pics/drawing_fruit/orange.jpg,7000.0,inanimate,drawing,885.9866305460671,True,,MEM,MEM_0076,2022-12-08 22:26:21
,visual-trial,14,142892,0.0-14.0,,,,,1263.0,,,arrowright,photo (left arrow)&emsp;&emsp;&emsp;&emsp;drawing (right arrow),perceptual,3000.0,,/static/object_pics/drawing_sea/eel.jpg,7000.0,animate,drawing,1318.2840079122325,True,,MEM,MEM_0076,2022-12-08 22:26:21
,visual-trial,15,147857,0.0-15.0,,,,,697.0,,,arrowright,photo (left arrow)&emsp;&emsp;&emsp;&emsp;drawing (right arrow),perceptual,3000.0,,/static/object_pics/drawing_mammal/camel.jpg,7000.0,animate,drawing,1259.899311298011,True,,MEM,MEM_0076,2022-12-08 22:26:21
,visual-trial,16,153009,0.0-16.0,,,,,1513.0,,,arrowleft,photo (left arrow)&emsp;&emsp;&emsp;&emsp;drawing (right arrow),perceptual,3000.0,,/static/object_pics/picture_bird/eagle.jpg,7000.0,animate,photo,633.4527963084806,True,,MEM,MEM_0076,2022-12-08 22:26:21
,visual-trial,17,157862,0.0-17.0,,,,,857.0,,,arrowright,photo (left arrow)&emsp;&emsp;&emsp;&emsp;drawing (right arrow),perceptual,3000.0,,/static/object_pics/drawing_clothe/slipper.jpg,7000.0,inanimate,drawing,991.9042127661148,True,,MEM,MEM_0076,2022-12-08 22:26:21
,visual-trial,18,163409,0.0-18.0,,,,,1113.0,,,arrowright,animate (left arrow)&emsp;&emsp;&emsp;&emsp;inanimate (right arrow),semantic,3000.0,,/static/object_pics/drawing_fruit/cherry.jpg,7000.0,inanimate,drawing,1423.7849357188975,True,,MEM,MEM_0076,2022-12-08 22:26:21
,visual-trial,19,168403,0.0-19.0,,,,,742.0,,,arrowright,animate (left arrow)&emsp;&emsp;&emsp;&emsp;inanimate (right arrow),semantic,3000.0,,/static/object_pics/drawing_clothe/scarf.jpg,7000.0,inanimate,drawing,1245.3339320458736,True,,MEM,MEM_0076,2022-12-08 22:26:21
,visual-trial,20,174131,0.0-20.0,,,,,1884.0,,,arrowright,animate (left arrow)&emsp;&emsp;&emsp;&emsp;inanimate (right arrow),semantic,3000.0,,/static/object_pics/picture_electronic/coffee maker.jpg,7000.0,inanimate,photo,835.1978098447735,True,,MEM,MEM_0076,2022-12-08 22:26:21
,visual-trial,21,178987,0.0-21.0,,,,,804.0,,,arrowleft,photo (left arrow)&emsp;&emsp;&emsp;&emsp;drawing (right arrow),perceptual,3000.0,,/static/object_pics/picture_veggie/cucumber.jpg,7000.0,inanimate,photo,1043.194696334531,True,,MEM,MEM_0076,2022-12-08 22:26:21
,visual-trial,22,184077,0.0-22.0,,,,,833.0,,,arrowright,photo (left arrow)&emsp;&emsp;&emsp;&emsp;drawing (right arrow),perceptual,3000.0,,/static/object_pics/drawing_clothe/football sneaker.jpg,7000.0,inanimate,drawing,1250.2653742272093,True,,MEM,MEM_0076,2022-12-08 22:26:21
,visual-trial,23,189581,0.0-23.0,,,,,1259.0,,,arrowleft,animate (left arrow)&emsp;&emsp;&emsp;&emsp;inanimate (right arrow),semantic,3000.0,,/static/object_pics/picture_bird/duck.jpg,7000.0,animate,photo,1235.244389229526,True,,MEM,MEM_0076,2022-12-08 22:26:21
,visual-trial,24,194518,0.0-24.0,,,,,810.0,,,arrowleft,animate (left arrow)&emsp;&emsp;&emsp;&emsp;inanimate (right arrow),semantic,3000.0,,/static/object_pics/picture_bird/flamingo.jpg,7000.0,animate,photo,1118.9529757722323,True,,MEM,MEM_0076,2022-12-08 22:26:21
,visual-trial,25,199465,0.0-25.0,,,,,615.0,,,arrowright,photo (left arrow)&emsp;&emsp;&emsp;&emsp;drawing (right arrow),perceptual,3000.0,,/static/object_pics/drawing_mammal/rhinoceros.jpg,7000.0,animate,drawing,1325.3213097397831,True,,MEM,MEM_0076,2022-12-08 22:26:21
,visual-trial,26,205291,0.0-26.0,,,,,1732.0,,,arrowleft,photo (left arrow)&emsp;&emsp;&emsp;&emsp;drawing (right arrow),perceptual,3000.0,,/static/object_pics/picture_electronic/remote control.jpg,7000.0,inanimate,photo,1088.6682102157097,True,,MEM,MEM_0076,2022-12-08 22:26:21
,visual-trial,27,212102,0.0-27.0,,,,,3182.0,,,arrowleft,animate (left arrow)&emsp;&emsp;&emsp;&emsp;inanimate (right arrow),semantic,3000.0,,/static/object_pics/drawing_sea/dolphin.jpg,7000.0,animate,drawing,621.7203563201552,True,,MEM,MEM_0076,2022-12-08 22:26:21
,visual-trial,28,217687,0.0-28.0,,,,,1126.0,,,arrowright,animate (left arrow)&emsp;&emsp;&emsp;&emsp;inanimate (right arrow),semantic,3000.0,,/static/object_pics/drawing_clothe/glasses.jpg,7000.0,inanimate,drawing,1449.4261120384467,True,,MEM,MEM_0076,2022-12-08 22:26:21
,visual-trial,29,223353,0.0-29.0,,,,,1218.0,,,arrowleft,animate (left arrow)&emsp;&emsp;&emsp;&emsp;inanimate (right arrow),semantic,3000.0,,/static/object_pics/picture_bird/pelican.jpg,7000.0,animate,photo,1439.5089282904246,True,,MEM,MEM_0076,2022-12-08 22:26:21
,visual-trial,30,228332,0.0-30.0,,,,,1199.0,,,arrowright,animate (left arrow)&emsp;&emsp;&emsp;&emsp;inanimate (right arrow),semantic,3000.0,,/static/object_pics/picture_veggie/mushrooms.jpg,7000.0,inanimate,photo,771.4753481292839,True,,MEM,MEM_0076,2022-12-08 22:26:21
,visual-trial,31,233381,0.0-31.0,,,,,974.0,,,arrowright,photo (left arrow)&emsp;&emsp;&emsp;&emsp;drawing (right arrow),perceptual,3000.0,,/static/object_pics/drawing_mammal/rabbit.jpg,7000.0,animate,drawing,1069.3386961878848,True,,MEM,MEM_0076,2022-12-08 22:26:21
,visual-trial,32,239212,0.0-32.0,,,,,1871.0,,,arrowleft,photo (left arrow)&emsp;&emsp;&emsp;&emsp;drawing (right arrow),perceptual,3000.0,,/static/object_pics/picture_veggie/carrot.jpg,7000.0,inanimate,photo,953.2531056161841,True,,MEM,MEM_0076,2022-12-08 22:26:21
,visual-trial,33,244918,0.0-33.0,,,,,1455.0,,,arrowright,photo (left arrow)&emsp;&emsp;&emsp;&emsp;drawing (right arrow),perceptual,3000.0,,/static/object_pics/drawing_mammal/elephant.jpg,7000.0,animate,drawing,1244.4374986722355,True,,MEM,MEM_0076,2022-12-08 22:26:21
,visual-trial,34,249461,0.0-34.0,,,,,851.0,,,arrowright,animate (left arrow)&emsp;&emsp;&emsp;&emsp;inanimate (right arrow),semantic,3000.0,,/static/object_pics/drawing_fruit/kiwi.jpg,7000.0,inanimate,drawing,683.9444514144997,True,,MEM,MEM_0076,2022-12-08 22:26:21
,visual-trial,35,254572,0.0-35.0,,,,,1189.0,,,arrowright,animate (left arrow)&emsp;&emsp;&emsp;&emsp;inanimate (right arrow),semantic,3000.0,,/static/object_pics/picture_electronic/radio02.jpg,7000.0,inanimate,photo,914.9889926073929,True,,MEM,MEM_0076,2022-12-08 22:26:21
,visual-trial,36,260010,0.0-36.0,,,,,1342.0,,,arrowleft,photo (left arrow)&emsp;&emsp;&emsp;&emsp;drawing (right arrow),perceptual,3000.0,,/static/object_pics/picture_veggie/corn.jpg,7000.0,inanimate,photo,1090.1896740483967,True,,MEM,MEM_0076,2022-12-08 22:26:21
,visual-trial,37,266159,0.0-37.0,,,,,1756.0,,,arrowright,photo (left arrow)&emsp;&emsp;&emsp;&emsp;drawing (right arrow),perceptual,3000.0,,/static/object_pics/drawing_mammal/gorilla.jpg,7000.0,animate,drawing,1387.8895185895944,True,,MEM,MEM_0076,2022-12-08 22:26:21
,visual-trial,38,271308,0.0-38.0,,,,,1285.0,,,arrowleft,animate (left arrow)&emsp;&emsp;&emsp;&emsp;inanimate (right arrow),semantic,3000.0,,/static/object_pics/drawing_sea/swordfish.jpg,7000.0,animate,drawing,856.3348275545893,True,,MEM,MEM_0076,2022-12-08 22:26:21
,visual-trial,39,276720,0.0-39.0,,,,,1007.0,,,arrowleft,photo (left arrow)&emsp;&emsp;&emsp;&emsp;drawing (right arrow),perceptual,3000.0,,/static/object_pics/picture_veggie/onions.jpg,7000.0,inanimate,photo,1399.3891916661237,True,,MEM,MEM_0076,2022-12-08 22:26:21
,visual-trial,40,282144,0.0-40.0,,,,,927.0,,,arrowright,animate (left arrow)&emsp;&emsp;&emsp;&emsp;inanimate (right arrow),semantic,3000.0,,/static/object_pics/drawing_fruit/coconut.jpg,7000.0,inanimate,drawing,1490.6013312844298,True,,MEM,MEM_0076,2022-12-08 22:26:21
,visual-trial,41,286410,0.0-41.0,,,,,686.0,,,arrowright,animate (left arrow)&emsp;&emsp;&emsp;&emsp;inanimate (right arrow),semantic,3000.0,,/static/object_pics/drawing_fruit/apple.jpg,7000.0,inanimate,drawing,573.0723184870054,True,,MEM,MEM_0076,2022-12-08 22:26:21
,html-keyboard-response,42,293791,0.0-42.0,,,,,7377.0,"
        <p>In that last set of trials, you were correct 97% of the time.</p>
        <p>Feel free to take a brief break. In the next set of trials, you will continue with the same task.
        The instructions are displayed below, in case you need a refresher.
        Press the space bar when you are ready to continue.</p>
        <p>In this task, you will see a series of objects. On some trials, your job is to determine
        whether the object shown is a color photograph or a line drawing. On other trials, your job
        is to determine whether the object represented is animate or inanimate.

        <br><br>
        You will know which response to make depending on the initial display, which will say
        ""animate / inanimate"" or ""photo / drawing"".
        <br>
        You will be able to use the left arrow key to report animate/photo and the right arrow key to report inanimate/drawing.
        <br>
        Please respond as quickly as possible, and use your dominant hand to make your responses.
        <br><br>
        You will be able to use the left arrow key to report animate/photo and the right arrow key to report inanimate/drawing.
        <br><br>
        <img src=""/static/instructions_pics/visual_pic.png"" height=""300px"">
        <br>
        In the example in the top row, the correct response is animate (left arrow key). In the example in the bottom row, the correct response is photo (left arrow key).
        <br>
        <br>When you are ready to begin, press the space bar.</p>", ,,,,,,,,,,,,,MEM,MEM_0076,2022-12-08 22:26:21
,visual-trial,43,298264,0.0-43.0,,,,,717.0,,,arrowright,animate (left arrow)&emsp;&emsp;&emsp;&emsp;inanimate (right arrow),semantic,3000.0,,/static/object_pics/drawing_clothe/sock.jpg,7000.0,inanimate,drawing,747.004605871699,True,,MEM,MEM_0076,2022-12-08 22:26:21
,visual-trial,44,303259,0.0-44.0,,,,,1029.0,,,arrowleft,animate (left arrow)&emsp;&emsp;&emsp;&emsp;inanimate (right arrow),semantic,3000.0,,/static/object_pics/drawing_mammal/giraffe.jpg,7000.0,animate,drawing,955.4446158426642,True,,MEM,MEM_0076,2022-12-08 22:26:21
,visual-trial,45,307524,0.0-45.0,,,,,728.0,,,arrowright,animate (left arrow)&emsp;&emsp;&emsp;&emsp;inanimate (right arrow),semantic,3000.0,,/static/object_pics/drawing_clothe/sport t-shirt.jpg,7000.0,inanimate,drawing,527.0814063503498,True,,MEM,MEM_0076,2022-12-08 22:26:21
,visual-trial,46,312247,0.0-46.0,,,,,614.0,,,arrowleft,photo (left arrow)&emsp;&emsp;&emsp;&emsp;drawing (right arrow),perceptual,3000.0,,/static/object_pics/picture_insect/spider.jpg,7000.0,animate,photo,1102.4483331948343,True,,MEM,MEM_0076,2022-12-08 22:26:21
,visual-trial,47,317215,0.0-47.0,,,,,1113.0,,,arrowright,animate (left arrow)&emsp;&emsp;&emsp;&emsp;inanimate (right arrow),semantic,3000.0,,/static/object_pics/picture_electronic/laptop.jpg,7000.0,inanimate,photo,846.1521585884421,True,,MEM,MEM_0076,2022-12-08 22:26:21
,visual-trial,48,321537,0.0-48.0,,,,,789.0,,,arrowright,animate (left arrow)&emsp;&emsp;&emsp;&emsp;inanimate (right arrow),semantic,3000.0,,/static/object_pics/drawing_clothe/shirt.jpg,7000.0,inanimate,drawing,527.8085198832838,True,,MEM,MEM_0076,2022-12-08 22:26:21
,visual-trial,49,326575,0.0-49.0,,,,,916.0,,,arrowleft,photo (left arrow)&emsp;&emsp;&emsp;&emsp;drawing (right arrow),perceptual,3000.0,,/static/object_pics/picture_insect/scorpion.jpg,7000.0,animate,photo,1113.3402299618228,True,,MEM,MEM_0076,2022-12-08 22:26:21
,visual-trial,50,331767,0.0-50.0,,,,,1430.0,,,arrowright,photo (left arrow)&emsp;&emsp;&emsp;&emsp;drawing (right arrow),perceptual,3000.0,,/static/object_pics/drawing_clothe/jeans.jpg,7000.0,inanimate,drawing,756.7068169199484,True,,MEM,MEM_0076,2022-12-08 22:26:21
,visual-trial,51,336800,0.0-51.0,,,,,1444.0,,,arrowright,animate (left arrow)&emsp;&emsp;&emsp;&emsp;inanimate (right arrow),semantic,3000.0,,/static/object_pics/picture_electronic/computer mouse.jpg,7000.0,inanimate,photo,580.0373297123109,True,,MEM,MEM_0076,2022-12-08 22:26:21
,visual-trial,52,341688,0.0-52.0,,,,,978.0,,,arrowright,photo (left arrow)&emsp;&emsp;&emsp;&emsp;drawing (right arrow),perceptual,3000.0,,/static/object_pics/drawing_fruit/pear.jpg,7000.0,inanimate,drawing,903.1628607760824,True,,MEM,MEM_0076,2022-12-08 22:26:21
,visual-trial,53,346210,0.0-53.0,,,,,838.0,,,arrowright,animate (left arrow)&emsp;&emsp;&emsp;&emsp;inanimate (right arrow),semantic,3000.0,,/static/object_pics/picture_electronic/gamepad.jpg,7000.0,inanimate,photo,675.3972022235141,True,,MEM,MEM_0076,2022-12-08 22:26:21
,visual-trial,54,351825,0.0-54.0,,,,,1419.0,,,arrowleft,animate (left arrow)&emsp;&emsp;&emsp;&emsp;inanimate (right arrow),semantic,3000.0,,/static/object_pics/picture_insect/centipede.jpg,7000.0,animate,photo,1188.6295059691377,True,,MEM,MEM_0076,2022-12-08 22:26:21
,visual-trial,55,356806,0.0-55.0,,,,,1472.0,,,arrowleft,photo (left arrow)&emsp;&emsp;&emsp;&emsp;drawing (right arrow),perceptual,3000.0,,/static/object_pics/picture_electronic/camera.jpg,7000.0,inanimate,photo,501.8821492990784,True,,MEM,MEM_0076,2022-12-08 22:26:21
,visual-trial,56,362675,0.0-56.0,,,,,1442.0,,,arrowleft,photo (left arrow)&emsp;&emsp;&emsp;&emsp;drawing (right arrow),perceptual,3000.0,,/static/object_pics/picture_veggie/garlic.jpg,7000.0,inanimate,photo,1417.3359102124036,True,,MEM,MEM_0076,2022-12-08 22:26:21
,visual-trial,57,368101,0.0-57.0,,,,,1146.0,,,arrowright,photo (left arrow)&emsp;&emsp;&emsp;&emsp;drawing (right arrow),perceptual,3000.0,,/static/object_pics/drawing_mammal/bison.jpg,7000.0,animate,drawing,1272.7512342365567,True,,MEM,MEM_0076,2022-12-08 22:26:21
,visual-trial,58,374659,0.0-58.0,,,,,2451.0,,,arrowleft,animate (left arrow)&emsp;&emsp;&emsp;&emsp;inanimate (right arrow),semantic,3000.0,,/static/object_pics/picture_insect/butterfly.jpg,7000.0,animate,photo,1099.9002114814984,True,,MEM,MEM_0076,2022-12-08 22:26:21
,visual-trial,59,381265,0.0-59.0,,,,,2342.0,,,arrowright,photo (left arrow)&emsp;&emsp;&emsp;&emsp;drawing (right arrow),perceptual,3000.0,,/static/object_pics/drawing_mammal/bull.jpg,7000.0,animate,drawing,1254.0587919244788,True,,MEM,MEM_0076,2022-12-08 22:26:21
,visual-trial,60,387116,0.0-60.0,,,,,1399.0,,,arrowright,photo (left arrow)&emsp;&emsp;&emsp;&emsp;drawing (right arrow),perceptual,3000.0,,/static/object_pics/drawing_sea/crab.jpg,7000.0,animate,drawing,1443.0795507350174,True,,MEM,MEM_0076,2022-12-08 22:26:21
,visual-trial,61,394010,0.0-61.0,,,,,2581.0,,,arrowleft,animate (left arrow)&emsp;&emsp;&emsp;&emsp;inanimate (right arrow),semantic,3000.0,,/static/object_pics/picture_insect/fly.jpg,7000.0,animate,photo,1304.1696537880057,True,,MEM,MEM_0076,2022-12-08 22:26:21
,visual-trial,62,399436,0.0-62.0,,,,,1329.0,,,arrowright,animate (left arrow)&emsp;&emsp;&emsp;&emsp;inanimate (right arrow),semantic,3000.0,,/static/object_pics/drawing_clothe/high heels.jpg,7000.0,inanimate,drawing,1088.5275202345324,True,,MEM,MEM_0076,2022-12-08 22:26:21
,visual-trial,63,404412,0.0-63.0,,,,,1253.0,,,arrowleft,animate (left arrow)&emsp;&emsp;&emsp;&emsp;inanimate (right arrow),semantic,3000.0,,/static/object_pics/picture_bird/canary.jpg,7000.0,animate,photo,715.6010178264289,True,,MEM,MEM_0076,2022-12-08 22:26:21
,visual-trial,64,410078,0.0-64.0,,,,,1540.0,,,arrowleft,animate (left arrow)&emsp;&emsp;&emsp;&emsp;inanimate (right arrow),semantic,3000.0,,/static/object_pics/drawing_sea/mantaray.jpg,7000.0,animate,drawing,1121.9606691167683,True,,MEM,MEM_0076,2022-12-08 22:26:21
,visual-trial,65,415457,0.0-65.0,,,,,1547.0,,,arrowright,photo (left arrow)&emsp;&emsp;&emsp;&emsp;drawing (right arrow),perceptual,3000.0,,/static/object_pics/drawing_mammal/antelope.jpg,7000.0,animate,drawing,822.0022890738608,True,,MEM,MEM_0076,2022-12-08 22:26:21
,visual-trial,66,420450,0.0-66.0,,,,,1075.0,,,arrowleft,photo (left arrow)&emsp;&emsp;&emsp;&emsp;drawing (right arrow),perceptual,3000.0,,/static/object_pics/picture_electronic/satellite dish.jpg,7000.0,inanimate,photo,914.8495976798931,True,,MEM,MEM_0076,2022-12-08 22:26:21
,visual-trial,67,425507,0.0-67.0,,,,,1123.0,,,arrowright,photo (left arrow)&emsp;&emsp;&emsp;&emsp;drawing (right arrow),perceptual,3000.0,,/static/object_pics/drawing_mammal/sheep.jpg,7000.0,animate,drawing,924.5587982929218,True,,MEM,MEM_0076,2022-12-08 22:26:21
,visual-trial,68,430624,0.0-68.0,,,,,1493.0,,,arrowleft,animate (left arrow)&emsp;&emsp;&emsp;&emsp;inanimate (right arrow),semantic,3000.0,,/static/object_pics/drawing_sea/jellyfish.jpg,7000.0,animate,drawing,614.9547230194834,True,,MEM,MEM_0076,2022-12-08 22:26:21
,visual-trial,69,436530,0.0-69.0,,,,,1571.0,,,arrowleft,animate (left arrow)&emsp;&emsp;&emsp;&emsp;inanimate (right arrow),semantic,3000.0,,/static/object_pics/drawing_sea/shrimp.jpg,7000.0,animate,drawing,1325.4978221696463,True,,MEM,MEM_0076,2022-12-08 22:26:21
,visual-trial,70,441672,0.0-70.0,,,,,1471.0,,,arrowright,photo (left arrow)&emsp;&emsp;&emsp;&emsp;drawing (right arrow),perceptual,3000.0,,/static/object_pics/drawing_sea/killer whale.jpg,7000.0,animate,drawing,662.7279406358296,True,,MEM,MEM_0076,2022-12-08 22:26:21
,visual-trial,71,446904,0.0-71.0,,,,,995.0,,,arrowleft,animate (left arrow)&emsp;&emsp;&emsp;&emsp;inanimate (right arrow),semantic,3000.0,,/static/object_pics/drawing_sea/piranha.jpg,7000.0,animate,drawing,1231.572087204811,True,,MEM,MEM_0076,2022-12-08 22:26:21
,visual-trial,72,452242,0.0-72.0,,,,,904.0,,,arrowright,photo (left arrow)&emsp;&emsp;&emsp;&emsp;drawing (right arrow),perceptual,3000.0,,/static/object_pics/drawing_clothe/bowtie.jpg,7000.0,inanimate,drawing,1425.8128964735802,True,,MEM,MEM_0076,2022-12-08 22:26:21
,visual-trial,73,457827,0.0-73.0,,,,,1129.0,,,arrowleft,animate (left arrow)&emsp;&emsp;&emsp;&emsp;inanimate (right arrow),semantic,3000.0,,/static/object_pics/picture_insect/bumble bee.jpg,7000.0,animate,photo,1447.4623970574094,True,,MEM,MEM_0076,2022-12-08 22:26:21
,visual-trial,74,462926,0.0-74.0,,,,,1178.0,,,arrowleft,photo (left arrow)&emsp;&emsp;&emsp;&emsp;drawing (right arrow),perceptual,3000.0,,/static/object_pics/picture_veggie/asparagus.jpg,7000.0,inanimate,photo,916.1024638656887,True,,MEM,MEM_0076,2022-12-08 22:26:21
,html-keyboard-response,75,465350,0.0-75.0,,,,,2422.0,"
        <p>In that last set of trials, you were correct 100% of the time.</p>
        <p>Feel free to take a brief break. In the next set of trials, you will continue with the same task.
        The instructions are displayed below, in case you need a refresher.
        Press the space bar when you are ready to continue.</p>
        <p>In this task, you will see a series of objects. On some trials, your job is to determine
        whether the object shown is a color photograph or a line drawing. On other trials, your job
        is to determine whether the object represented is animate or inanimate.

        <br><br>
        You will know which response to make depending on the initial display, which will say
        ""animate / inanimate"" or ""photo / drawing"".
        <br>
        You will be able to use the left arrow key to report animate/photo and the right arrow key to report inanimate/drawing.
        <br>
        Please respond as quickly as possible, and use your dominant hand to make your responses.
        <br><br>
        You will be able to use the left arrow key to report animate/photo and the right arrow key to report inanimate/drawing.
        <br><br>
        <img src=""/static/instructions_pics/visual_pic.png"" height=""300px"">
        <br>
        In the example in the top row, the correct response is animate (left arrow key). In the example in the bottom row, the correct response is photo (left arrow key).
        <br>
        <br>When you are ready to begin, press the space bar.</p>", ,,,,,,,,,,,,,MEM,MEM_0076,2022-12-08 22:26:21
,visual-trial,76,470442,0.0-76.0,,,,,1023.0,,,arrowleft,animate (left arrow)&emsp;&emsp;&emsp;&emsp;inanimate (right arrow),semantic,3000.0,,/static/object_pics/drawing_sea/octopus.jpg,7000.0,animate,drawing,1062.2841231393322,True,,MEM,MEM_0076,2022-12-08 22:26:21
,visual-trial,77,475230,0.0-77.0,,,,,820.0,,,arrowright,animate (left arrow)&emsp;&emsp;&emsp;&emsp;inanimate (right arrow),semantic,3000.0,,/static/object_pics/drawing_clothe/dress.jpg,7000.0,inanimate,drawing,961.4295453432609,True,,MEM,MEM_0076,2022-12-08 22:26:21
,visual-trial,78,479900,0.0-78.0,,,,,1154.0,,,arrowright,animate (left arrow)&emsp;&emsp;&emsp;&emsp;inanimate (right arrow),semantic,3000.0,,/static/object_pics/picture_electronic/printer.jpg,7000.0,inanimate,photo,509.502766536315,True,,MEM,MEM_0076,2022-12-08 22:26:21
,visual-trial,79,485286,0.0-79.0,,,,,1703.0,,,arrowleft,photo (left arrow)&emsp;&emsp;&emsp;&emsp;drawing (right arrow),perceptual,3000.0,,/static/object_pics/picture_electronic/microphone.jpg,7000.0,inanimate,photo,677.3432908387224,True,,MEM,MEM_0076,2022-12-08 22:26:21
,visual-trial,80,490837,0.0-80.0,,,,,1291.0,,,arrowright,photo (left arrow)&emsp;&emsp;&emsp;&emsp;drawing (right arrow),perceptual,3000.0,,/static/object_pics/drawing_clothe/hoodie.jpg,7000.0,inanimate,drawing,1252.7575417120365,True,,MEM,MEM_0076,2022-12-08 22:26:21
,visual-trial,81,495866,0.0-81.0,,,,,1099.0,,,arrowright,animate (left arrow)&emsp;&emsp;&emsp;&emsp;inanimate (right arrow),semantic,3000.0,,/static/object_pics/drawing_fruit/strawberry.jpg,7000.0,inanimate,drawing,921.5889602198695,True,,MEM,MEM_0076,2022-12-08 22:26:21
,visual-trial,82,500825,0.0-82.0,,,,,975.0,,,arrowleft,animate (left arrow)&emsp;&emsp;&emsp;&emsp;inanimate (right arrow),semantic,3000.0,,/static/object_pics/picture_bird/ostrich.jpg,7000.0,animate,photo,976.8671771932187,True,,MEM,MEM_0076,2022-12-08 22:26:21
,visual-trial,83,505934,0.0-83.0,,,,,1017.0,,,arrowright,photo (left arrow)&emsp;&emsp;&emsp;&emsp;drawing (right arrow),perceptual,3000.0,,/static/object_pics/drawing_fruit/pomegranate.jpg,7000.0,inanimate,drawing,1084.2376371986634,True,,MEM,MEM_0076,2022-12-08 22:26:21
,visual-trial,84,511202,0.0-84.0,,,,,963.0,,,arrowright,photo (left arrow)&emsp;&emsp;&emsp;&emsp;drawing (right arrow),perceptual,3000.0,,/static/object_pics/drawing_fruit/melon.jpg,7000.0,inanimate,drawing,1298.7162042330951,True,,MEM,MEM_0076,2022-12-08 22:26:21
,visual-trial,85,516220,0.0-85.0,,,,,1410.0,,,arrowleft,animate (left arrow)&emsp;&emsp;&emsp;&emsp;inanimate (right arrow),semantic,3000.0,,/static/object_pics/picture_bird/peacock.jpg,7000.0,animate,photo,599.8418631045513,True,,MEM,MEM_0076,2022-12-08 22:26:21
,visual-trial,86,520957,0.0-86.0,,,,,899.0,,,arrowleft,animate (left arrow)&emsp;&emsp;&emsp;&emsp;inanimate (right arrow),semantic,3000.0,,/static/object_pics/picture_bird/owl.jpg,7000.0,animate,photo,831.6462640963864,True,,MEM,MEM_0076,2022-12-08 22:26:21
,visual-trial,87,526314,0.0-87.0,,,,,896.0,,,arrowleft,animate (left arrow)&emsp;&emsp;&emsp;&emsp;inanimate (right arrow),semantic,3000.0,,/static/object_pics/picture_bird/parrot.jpg,7000.0,animate,photo,1451.863616131123,True,,MEM,MEM_0076,2022-12-08 22:26:21
,visual-trial,88,531220,0.0-88.0,,,,,1008.0,,,arrowleft,animate (left arrow)&emsp;&emsp;&emsp;&emsp;inanimate (right arrow),semantic,3000.0,,/static/object_pics/drawing_sea/seal.jpg,7000.0,animate,drawing,894.0641599085693,True,,MEM,MEM_0076,2022-12-08 22:26:21
,visual-trial,89,536565,0.0-89.0,,,,,1179.0,,,arrowleft,animate (left arrow)&emsp;&emsp;&emsp;&emsp;inanimate (right arrow),semantic,3000.0,,/static/object_pics/picture_insect/beetle.jpg,7000.0,animate,photo,1160.681395991725,True,,MEM,MEM_0076,2022-12-08 22:26:21
,visual-trial,90,541171,0.0-90.0,,,,,782.0,,,arrowright,animate (left arrow)&emsp;&emsp;&emsp;&emsp;inanimate (right arrow),semantic,3000.0,,/static/object_pics/drawing_clothe/tie.jpg,7000.0,inanimate,drawing,814.4698875302512,True,,MEM,MEM_0076,2022-12-08 22:26:21
,visual-trial,91,545856,0.0-91.0,,,,,876.0,,,arrowleft,animate (left arrow)&emsp;&emsp;&emsp;&emsp;inanimate (right arrow),semantic,3000.0,,/static/object_pics/drawing_mammal/horse.jpg,7000.0,animate,drawing,804.2972927312555,True,,MEM,MEM_0076,2022-12-08 22:26:21
,visual-trial,92,551265,0.0-92.0,,,,,1299.0,,,arrowleft,photo (left arrow)&emsp;&emsp;&emsp;&emsp;drawing (right arrow),perceptual,3000.0,,/static/object_pics/picture_veggie/artichoke.jpg,7000.0,inanimate,photo,1105.7185560769508,True,,MEM,MEM_0076,2022-12-08 22:26:21
,visual-trial,93,555552,0.0-93.0,,,,,775.0,,,arrowleft,animate (left arrow)&emsp;&emsp;&emsp;&emsp;inanimate (right arrow),semantic,3000.0,,/static/object_pics/picture_bird/vulture.jpg,7000.0,animate,photo,507.1809101514373,True,,MEM,MEM_0076,2022-12-08 22:26:21
,visual-trial,94,560225,0.0-94.0,,,,,888.0,,,arrowleft,photo (left arrow)&emsp;&emsp;&emsp;&emsp;drawing (right arrow),perceptual,3000.0,,/static/object_pics/picture_electronic/calculator.jpg,7000.0,inanimate,photo,780.4001407035094,True,,MEM,MEM_0076,2022-12-08 22:26:21
,visual-trial,95,564655,0.0-95.0,,,,,721.0,,,arrowleft,photo (left arrow)&emsp;&emsp;&emsp;&emsp;drawing (right arrow),perceptual,3000.0,,/static/object_pics/picture_bird/hen.jpg,7000.0,animate,photo,704.6123084138422,True,,MEM,MEM_0076,2022-12-08 22:26:21
,visual-trial,96,570833,0.0-96.0,,,,,2066.0,,,arrowright,animate (left arrow)&emsp;&emsp;&emsp;&emsp;inanimate (right arrow),semantic,3000.0,,/static/object_pics/picture_veggie/tomato.jpg,7000.0,inanimate,photo,1105.9119592901488,True,,MEM,MEM_0076,2022-12-08 22:26:21
,visual-trial,97,576254,0.0-97.0,,,,,1226.0,,,arrowright,animate (left arrow)&emsp;&emsp;&emsp;&emsp;inanimate (right arrow),semantic,3000.0,,/static/object_pics/picture_electronic/phone.jpg,7000.0,inanimate,photo,1189.7604614059715,True,,MEM,MEM_0076,2022-12-08 22:26:21
,visual-trial,98,580985,0.0-98.0,,,,,938.0,,,arrowleft,photo (left arrow)&emsp;&emsp;&emsp;&emsp;drawing (right arrow),perceptual,3000.0,,/static/object_pics/picture_veggie/cauliflower.jpg,7000.0,inanimate,photo,786.0103113321397,True,,MEM,MEM_0076,2022-12-08 22:26:21
,visual-trial,99,585780,0.0-99.0,,,,,886.0,,,arrowleft,animate (left arrow)&emsp;&emsp;&emsp;&emsp;inanimate (right arrow),semantic,3000.0,,/static/object_pics/picture_bird/hummingbird.jpg,7000.0,animate,photo,904.6527884001066,True,,MEM,MEM_0076,2022-12-08 22:26:21
,visual-trial,100,590857,0.0-100.0,,,,,869.0,,,arrowright,animate (left arrow)&emsp;&emsp;&emsp;&emsp;inanimate (right arrow),semantic,3000.0,,/static/object_pics/drawing_clothe/hat.jpg,7000.0,inanimate,drawing,1202.6068705576417,True,,MEM,MEM_0076,2022-12-08 22:26:21
,visual-trial,101,596951,0.0-101.0,,,,,1617.0,,,arrowleft,animate (left arrow)&emsp;&emsp;&emsp;&emsp;inanimate (right arrow),semantic,3000.0,,/static/object_pics/picture_insect/cockroach.jpg,7000.0,animate,photo,1470.2141490247864,True,,MEM,MEM_0076,2022-12-08 22:26:21
,visual-trial,102,601713,0.0-102.0,,,,,1086.0,,,arrowright,animate (left arrow)&emsp;&emsp;&emsp;&emsp;inanimate (right arrow),semantic,3000.0,,/static/object_pics/drawing_fruit/apricot.jpg,7000.0,inanimate,drawing,668.4371682920894,True,,MEM,MEM_0076,2022-12-08 22:26:21
,visual-trial,103,605894,0.0-103.0,,,,,632.0,,,arrowleft,animate (left arrow)&emsp;&emsp;&emsp;&emsp;inanimate (right arrow),semantic,3000.0,,/static/object_pics/picture_insect/dragonfly.jpg,7000.0,animate,photo,544.9197107208512,True,,MEM,MEM_0076,2022-12-08 22:26:21
,visual-trial,104,610280,0.0-104.0,,,,,682.0,,,arrowleft,animate (left arrow)&emsp;&emsp;&emsp;&emsp;inanimate (right arrow),semantic,3000.0,,/static/object_pics/drawing_mammal/lion.jpg,7000.0,animate,drawing,695.0424991359183,True,,MEM,MEM_0076,2022-12-08 22:26:21
,visual-trial,105,615248,0.0-105.0,,,,,738.0,,,arrowleft,animate (left arrow)&emsp;&emsp;&emsp;&emsp;inanimate (right arrow),semantic,3000.0,,/static/object_pics/picture_insect/worm.jpg,7000.0,animate,photo,1223.6627954125638,True,,MEM,MEM_0076,2022-12-08 22:26:21
,visual-trial,106,620369,0.0-106.0,,,,,941.0,,,arrowleft,photo (left arrow)&emsp;&emsp;&emsp;&emsp;drawing (right arrow),perceptual,3000.0,,/static/object_pics/picture_insect/ladybug.jpg,7000.0,animate,photo,1173.6581497155005,True,,MEM,MEM_0076,2022-12-08 22:26:21
,visual-trial,107,625768,0.0-107.0,,,,,1146.0,,,arrowleft,photo (left arrow)&emsp;&emsp;&emsp;&emsp;drawing (right arrow),perceptual,3000.0,,/static/object_pics/picture_bird/pigeon.jpg,7000.0,animate,photo,1247.5602227882139,True,,MEM,MEM_0076,2022-12-08 22:26:21
,html-keyboard-response,108,628048,0.0-108.0,,,,,2279.0,"
        <p>In that last set of trials, you were correct 100% of the time.</p>
        <p>Feel free to take a brief break. In the next set of trials, you will continue with the same task.
        The instructions are displayed below, in case you need a refresher.
        Press the space bar when you are ready to continue.</p>
        <p>In this task, you will see a series of objects. On some trials, your job is to determine
        whether the object shown is a color photograph or a line drawing. On other trials, your job
        is to determine whether the object represented is animate or inanimate.

        <br><br>
        You will know which response to make depending on the initial display, which will say
        ""animate / inanimate"" or ""photo / drawing"".
        <br>
        You will be able to use the left arrow key to report animate/photo and the right arrow key to report inanimate/drawing.
        <br>
        Please respond as quickly as possible, and use your dominant hand to make your responses.
        <br><br>
        You will be able to use the left arrow key to report animate/photo and the right arrow key to report inanimate/drawing.
        <br><br>
        <img src=""/static/instructions_pics/visual_pic.png"" height=""300px"">
        <br>
        In the example in the top row, the correct response is animate (left arrow key). In the example in the bottom row, the correct response is photo (left arrow key).
        <br>
        <br>When you are ready to begin, press the space bar.</p>", ,,,,,,,,,,,,,MEM,MEM_0076,2022-12-08 22:26:21
,visual-trial,109,632530,0.0-109.0,,,,,782.0,,,arrowleft,photo (left arrow)&emsp;&emsp;&emsp;&emsp;drawing (right arrow),perceptual,3000.0,,/static/object_pics/picture_electronic/handmixer.jpg,7000.0,inanimate,photo,693.9997834801302,True,,MEM,MEM_0076,2022-12-08 22:26:21
,visual-trial,110,637791,0.0-110.0,,,,,1564.0,,,arrowleft,animate (left arrow)&emsp;&emsp;&emsp;&emsp;inanimate (right arrow),semantic,3000.0,,/static/object_pics/picture_bird/toucan.jpg,7000.0,animate,photo,688.8013773658272,True,,MEM,MEM_0076,2022-12-08 22:26:21
,visual-trial,111,643179,0.0-111.0,,,,,1074.0,,,arrowright,photo (left arrow)&emsp;&emsp;&emsp;&emsp;drawing (right arrow),perceptual,3000.0,,/static/object_pics/drawing_sea/shark.jpg,7000.0,animate,drawing,1305.3656592105676,True,,MEM,MEM_0076,2022-12-08 22:26:21
,visual-trial,112,648559,0.0-112.0,,,,,1815.0,,,arrowleft,animate (left arrow)&emsp;&emsp;&emsp;&emsp;inanimate (right arrow),semantic,3000.0,,/static/object_pics/picture_veggie/potato.jpg,7000.0,inanimate,photo,561.3117151867189,False,,MEM,MEM_0076,2022-12-08 22:26:21
,visual-trial,113,653349,0.0-113.0,,,,,962.0,,,arrowright,photo (left arrow)&emsp;&emsp;&emsp;&emsp;drawing (right arrow),perceptual,3000.0,,/static/object_pics/drawing_fruit/lemon.jpg,7000.0,inanimate,drawing,818.6069205661934,True,,MEM,MEM_0076,2022-12-08 22:26:21
,visual-trial,114,657952,0.0-114.0,,,,,856.0,,,arrowright,photo (left arrow)&emsp;&emsp;&emsp;&emsp;drawing (right arrow),perceptual,3000.0,,/static/object_pics/drawing_fruit/pineapple.jpg,7000.0,inanimate,drawing,739.8043141035444,True,,MEM,MEM_0076,2022-12-08 22:26:21
,visual-trial,115,663837,0.0-115.0,,,,,1482.0,,,arrowleft,photo (left arrow)&emsp;&emsp;&emsp;&emsp;drawing (right arrow),perceptual,3000.0,,/static/object_pics/picture_veggie/aubergine.jpg,7000.0,inanimate,photo,1397.57055472899,True,,MEM,MEM_0076,2022-12-08 22:26:21
,visual-trial,116,669300,0.0-116.0,,,,,1153.0,,,arrowleft,photo (left arrow)&emsp;&emsp;&emsp;&emsp;drawing (right arrow),perceptual,3000.0,,/static/object_pics/picture_insect/snail.jpg,7000.0,animate,photo,1301.6309838624493,True,,MEM,MEM_0076,2022-12-08 22:26:21
,visual-trial,117,674244,0.0-117.0,,,,,1120.0,,,arrowright,animate (left arrow)&emsp;&emsp;&emsp;&emsp;inanimate (right arrow),semantic,3000.0,,/static/object_pics/picture_electronic/toaster.jpg,7000.0,inanimate,photo,815.5204617459724,True,,MEM,MEM_0076,2022-12-08 22:26:21
,visual-trial,118,679034,0.0-118.0,,,,,855.0,,,arrowleft,photo (left arrow)&emsp;&emsp;&emsp;&emsp;drawing (right arrow),perceptual,3000.0,,/static/object_pics/picture_bird/penguin.jpg,7000.0,animate,photo,929.1938469644508,True,,MEM,MEM_0076,2022-12-08 22:26:21
,visual-trial,119,684669,0.0-119.0,,,,,1851.0,,,arrowleft,photo (left arrow)&emsp;&emsp;&emsp;&emsp;drawing (right arrow),perceptual,3000.0,,/static/object_pics/picture_insect/mosquito.jpg,7000.0,animate,photo,775.2845861892115,True,,MEM,MEM_0076,2022-12-08 22:26:21
,visual-trial,120,691107,0.0-120.0,,,,,2592.0,,,arrowright,photo (left arrow)&emsp;&emsp;&emsp;&emsp;drawing (right arrow),perceptual,3000.0,,/static/object_pics/drawing_mammal/bear.jpg,7000.0,animate,drawing,836.3078226083769,True,,MEM,MEM_0076,2022-12-08 22:26:21
,visual-trial,121,696853,0.0-121.0,,,,,1271.0,,,arrowright,photo (left arrow)&emsp;&emsp;&emsp;&emsp;drawing (right arrow),perceptual,3000.0,,/static/object_pics/drawing_sea/pufferfish.jpg,7000.0,animate,drawing,1468.5974007384166,True,,MEM,MEM_0076,2022-12-08 22:26:21
,visual-trial,122,701863,0.0-122.0,,,,,826.0,,,arrowleft,photo (left arrow)&emsp;&emsp;&emsp;&emsp;drawing (right arrow),perceptual,3000.0,,/static/object_pics/picture_veggie/pepper.jpg,7000.0,inanimate,photo,1177.65308012764,True,,MEM,MEM_0076,2022-12-08 22:26:21
,visual-trial,123,707372,0.0-123.0,,,,,1401.0,,,arrowleft,photo (left arrow)&emsp;&emsp;&emsp;&emsp;drawing (right arrow),perceptual,3000.0,,/static/object_pics/picture_electronic/keyboard.jpg,7000.0,inanimate,photo,1102.7410927968276,True,,MEM,MEM_0076,2022-12-08 22:26:21
,visual-trial,124,713177,0.0-124.0,,,,,2123.0,,,arrowleft,photo (left arrow)&emsp;&emsp;&emsp;&emsp;drawing (right arrow),perceptual,3000.0,,/static/object_pics/picture_bird/turkey.jpg,7000.0,animate,photo,675.1003395273334,True,,MEM,MEM_0076,2022-12-08 22:26:21
,visual-trial,125,717663,0.0-125.0,,,,,887.0,,,arrowleft,animate (left arrow)&emsp;&emsp;&emsp;&emsp;inanimate (right arrow),semantic,3000.0,,/static/object_pics/picture_insect/grasshopper.jpg,7000.0,animate,photo,590.4883899278964,True,,MEM,MEM_0076,2022-12-08 22:26:21
,visual-trial,126,723831,0.0-126.0,,,,,1778.0,,,arrowright,photo (left arrow)&emsp;&emsp;&emsp;&emsp;drawing (right arrow),perceptual,3000.0,,/static/object_pics/drawing_fruit/papaya.jpg,7000.0,inanimate,drawing,1382.6402249068738,True,,MEM,MEM_0076,2022-12-08 22:26:21
,visual-trial,127,728511,0.0-127.0,,,,,957.0,,,arrowright,animate (left arrow)&emsp;&emsp;&emsp;&emsp;inanimate (right arrow),semantic,3000.0,,/static/object_pics/drawing_fruit/watermelon.jpg,7000.0,inanimate,drawing,714.9926134574125,True,,MEM,MEM_0076,2022-12-08 22:26:21
,visual-trial,128,733787,0.0-128.0,,,,,1272.0,,,arrowright,photo (left arrow)&emsp;&emsp;&emsp;&emsp;drawing (right arrow),perceptual,3000.0,,/static/object_pics/drawing_sea/seahorse.jpg,7000.0,animate,drawing,994.9446508138498,True,,MEM,MEM_0076,2022-12-08 22:26:21
,visual-trial,129,739085,0.0-129.0,,,,,1754.0,,,arrowleft,photo (left arrow)&emsp;&emsp;&emsp;&emsp;drawing (right arrow),perceptual,3000.0,,/static/object_pics/picture_veggie/lettuce.jpg,7000.0,inanimate,photo,535.9473529070766,True,,MEM,MEM_0076,2022-12-08 22:26:21
,visual-trial,130,744122,0.0-130.0,,,,,807.0,,,arrowleft,animate (left arrow)&emsp;&emsp;&emsp;&emsp;inanimate (right arrow),semantic,3000.0,,/static/object_pics/drawing_mammal/squirrel.jpg,7000.0,animate,drawing,1224.396682790694,True,,MEM,MEM_0076,2022-12-08 22:26:21
,visual-trial,131,748423,0.0-131.0,,,,,788.0,,,arrowleft,photo (left arrow)&emsp;&emsp;&emsp;&emsp;drawing (right arrow),perceptual,3000.0,,/static/object_pics/picture_veggie/beetroot.jpg,7000.0,inanimate,photo,509.5116729768594,True,,MEM,MEM_0076,2022-12-08 22:26:21
,visual-trial,132,753547,0.0-132.0,,,,,872.0,,,arrowright,photo (left arrow)&emsp;&emsp;&emsp;&emsp;drawing (right arrow),perceptual,3000.0,,/static/object_pics/drawing_clothe/belt.jpg,7000.0,inanimate,drawing,1243.5792709115922,True,,MEM,MEM_0076,2022-12-08 22:26:21
,visual-trial,133,758434,0.0-133.0,,,,,757.0,,,arrowleft,photo (left arrow)&emsp;&emsp;&emsp;&emsp;drawing (right arrow),perceptual,3000.0,,/static/object_pics/picture_insect/ant.jpg,7000.0,animate,photo,1122.801320328755,True,,MEM,MEM_0076,2022-12-08 22:26:21
,visual-trial,134,763722,0.0-134.0,,,,,920.0,,,arrowright,photo (left arrow)&emsp;&emsp;&emsp;&emsp;drawing (right arrow),perceptual,3000.0,,/static/object_pics/drawing_mammal/kangaroo.jpg,7000.0,animate,drawing,1363.585231896913,True,,MEM,MEM_0076,2022-12-08 22:26:21
,visual-trial,135,768434,0.0-135.0,,,,,854.0,,,arrowright,animate (left arrow)&emsp;&emsp;&emsp;&emsp;inanimate (right arrow),semantic,3000.0,,/static/object_pics/drawing_clothe/gloves.jpg,7000.0,inanimate,drawing,850.4226337125722,True,,MEM,MEM_0076,2022-12-08 22:26:21
,visual-trial,136,773509,0.0-136.0,,,,,1448.0,,,arrowleft,animate (left arrow)&emsp;&emsp;&emsp;&emsp;inanimate (right arrow),semantic,3000.0,,/static/object_pics/picture_insect/mantis.jpg,7000.0,animate,photo,617.7619223076414,True,,MEM,MEM_0076,2022-12-08 22:26:21
,visual-trial,137,779043,0.0-137.0,,,,,2022.0,,,arrowright,photo (left arrow)&emsp;&emsp;&emsp;&emsp;drawing (right arrow),perceptual,3000.0,,/static/object_pics/drawing_fruit/banana.jpg,7000.0,inanimate,drawing,506.9377458349857,True,,MEM,MEM_0076,2022-12-08 22:26:21
,visual-trial,138,785764,0.0-138.0,,,,,2279.0,,,arrowleft,photo (left arrow)&emsp;&emsp;&emsp;&emsp;drawing (right arrow),perceptual,3000.0,,/static/object_pics/picture_electronic/hairdryer.jpg,7000.0,inanimate,photo,1432.3408598957926,True,,MEM,MEM_0076,2022-12-08 22:26:21
,visual-trial,139,791238,0.0-139.0,,,,,1028.0,,,arrowleft,animate (left arrow)&emsp;&emsp;&emsp;&emsp;inanimate (right arrow),semantic,3000.0,,/static/object_pics/drawing_sea/starfish.jpg,7000.0,animate,drawing,1439.2905380198063,True,,MEM,MEM_0076,2022-12-08 22:26:21
,visual-trial,140,796349,0.0-140.0,,,,,822.0,,,arrowleft,animate (left arrow)&emsp;&emsp;&emsp;&emsp;inanimate (right arrow),semantic,3000.0,,/static/object_pics/drawing_sea/seaturtle.jpg,7000.0,animate,drawing,1282.4988172094663,True,,MEM,MEM_0076,2022-12-08 22:26:21
,html-keyboard-response,141,802324,0.0-141.0,,,,,5974.0,"
      <p>Thank you for your participation!</p>
      The goal of this study is to replicate previous findings that the timing of responses in memory-dependent tasks
      is rhythmic in nature (compared to the timing of responses in memory-independent tasks).
      You performed the memory-independent tasks in this study.
      <br>
      Your participation will allow us to better understand how memory works.
      Please do not share this information with other potential participants.
      <br>
      Press the space bar to continue.</p>", ,,,,,,,,,,,,,MEM,MEM_0076,2022-12-08 22:26:21
