success,trial_type,trial_index,time_elapsed,internal_node_id,timeout,failed_images,failed_audio,failed_video,rt,stimulus,response,key,instruction,instruction_class,instruction_duration,prompt,object,object_duration,animacy,style,jitter,accurate,question_order,exp,subjectId,date
True,fullscreen,0,3967,0.0-0.0,,,,,,,,,,,,,,,,,,,,MEM,MEM_0063,2022-12-08 22:04:16
True,preload,1,45968,0.0-1.0,False,[],[],[],,,,,,,,,,,,,,,,MEM,MEM_0063,2022-12-08 22:04:16
,html-keyboard-response,2,93105,0.0-2.0,,,,,47134.0,"
      <p>In this task, you will see a series of objects. On some trials, your job is to determine
      whether the object shown is a color photograph or a line drawing. On other trials, your job
      is to determine whether the object represented is animate or inanimate.

      <br><br>
      You will know which response to make depending on the initial display, which will say
      ""animate / inanimate"" or ""photo / drawing"".
      <br>
      <br>
      You will be able to use the left arrow key to report animate/photo and the right arrow key to report inanimate/drawing.
      <br>
      Please respond as quickly as possible, and use your dominant hand to make your responses.
      <br><br>
      <img src=""/static/instructions_pics/visual_pic.png"" height=""300px"">
      <br>
      In the example in the top row, the correct response is animate (left arrow key). In the example in the bottom row, the correct response is photo (left arrow key).
      <br>
      <br>You will first do some practice trials. When you are ready to begin, press the space bar.</p>", ,,,,,,,,,,,,,MEM,MEM_0063,2022-12-08 22:04:16
,visual-trial,3,98573,0.0-3.0,,,,,1631.0,,,arrowright,animate (left arrow)&emsp;&emsp;&emsp;&emsp;inanimate (right arrow),semantic,3000.0,,/static/for_instructions/object_pics/drawing_bird/heron.jpg,7000.0,animate,drawing,811.1610219860413,False,,MEM,MEM_0063,2022-12-08 22:04:16
,visual-trial,4,104221,0.0-4.0,,,,,1313.0,,,arrowleft,photo (left arrow)&emsp;&emsp;&emsp;&emsp;drawing (right arrow),perceptual,3000.0,,/static/for_instructions/object_pics/picture_electronic/flashlight.jpg,7000.0,inanimate,photo,1325.0508526397855,True,,MEM,MEM_0063,2022-12-08 22:04:16
,visual-trial,5,109646,0.0-5.0,,,,,1290.0,,,arrowright,animate (left arrow)&emsp;&emsp;&emsp;&emsp;inanimate (right arrow),semantic,3000.0,,/static/for_instructions/object_pics/drawing_clothe/hockey helmet.jpg,7000.0,inanimate,drawing,1116.564744916529,True,,MEM,MEM_0063,2022-12-08 22:04:16
,visual-trial,6,116974,0.0-6.0,,,,,3210.0,,,arrowleft,photo (left arrow)&emsp;&emsp;&emsp;&emsp;drawing (right arrow),perceptual,3000.0,,/static/for_instructions/object_pics/picture_veggie/avocado.jpg,7000.0,inanimate,photo,1099.5225597415924,True,,MEM,MEM_0063,2022-12-08 22:04:16
,survey-multi-choice,7,128900,0.0-7.0-0.0,,,,,11922.0,,"{'Style': 'True', 'Animacy': 'True'}",,,,,,,,,,,,"[0, 1]",MEM,MEM_0063,2022-12-08 22:04:16
,html-keyboard-response,8,143966,0.0-8.0,,,,,15066.0,"
      <p>Great job! Now you'll continue onto doing the main task.
      You will have the opportunity to take brief breaks at various points.
      Good luck!<br>Press the space bar to continue.</p>", ,,,,,,,,,,,,,MEM,MEM_0063,2022-12-08 22:04:16
True,fullscreen,9,148172,0.0-9.0,,,,,,,,,,,,,,,,,,,,MEM,MEM_0063,2022-12-08 22:04:16
,visual-trial,10,152781,0.0-10.0,,,,,1062.0,,,arrowright,photo (left arrow)&emsp;&emsp;&emsp;&emsp;drawing (right arrow),perceptual,3000.0,,/static/object_pics/drawing_veggie/beetroot.jpg,7000.0,inanimate,drawing,527.0011452781117,True,,MEM,MEM_0063,2022-12-08 22:04:16
,visual-trial,11,157854,0.0-11.0,,,,,925.0,,,arrowright,photo (left arrow)&emsp;&emsp;&emsp;&emsp;drawing (right arrow),perceptual,3000.0,,/static/object_pics/picture_bird/turkey.jpg,7000.0,animate,photo,1134.8551121833186,False,,MEM,MEM_0063,2022-12-08 22:04:16
,visual-trial,12,163342,0.0-12.0,,,,,1351.0,,,arrowright,animate (left arrow)&emsp;&emsp;&emsp;&emsp;inanimate (right arrow),semantic,3000.0,,/static/object_pics/picture_fruit/coconut.jpg,7000.0,inanimate,photo,1124.9962834715034,True,,MEM,MEM_0063,2022-12-08 22:04:16
,visual-trial,13,168446,0.0-13.0,,,,,1032.0,,,arrowleft,animate (left arrow)&emsp;&emsp;&emsp;&emsp;inanimate (right arrow),semantic,3000.0,,/static/object_pics/drawing_insect/worm.jpg,7000.0,animate,drawing,1062.4660802305684,True,,MEM,MEM_0063,2022-12-08 22:04:16
,visual-trial,14,173742,0.0-14.0,,,,,1057.0,,,arrowleft,animate (left arrow)&emsp;&emsp;&emsp;&emsp;inanimate (right arrow),semantic,3000.0,,/static/object_pics/picture_sea/killer whale.jpg,7000.0,animate,photo,1230.8558343911661,True,,MEM,MEM_0063,2022-12-08 22:04:16
,visual-trial,15,180462,0.0-15.0,,,,,2501.0,,,arrowleft,animate (left arrow)&emsp;&emsp;&emsp;&emsp;inanimate (right arrow),semantic,3000.0,,/static/object_pics/picture_sea/eel.jpg,7000.0,animate,photo,1202.3417650511765,True,,MEM,MEM_0063,2022-12-08 22:04:16
,visual-trial,16,186317,0.0-16.0,,,,,1762.0,,,arrowright,photo (left arrow)&emsp;&emsp;&emsp;&emsp;drawing (right arrow),perceptual,3000.0,,/static/object_pics/picture_bird/owl.jpg,7000.0,animate,photo,1076.0997644941206,False,,MEM,MEM_0063,2022-12-08 22:04:16
,visual-trial,17,191661,0.0-17.0,,,,,1690.0,,,arrowleft,animate (left arrow)&emsp;&emsp;&emsp;&emsp;inanimate (right arrow),semantic,3000.0,,/static/object_pics/drawing_mammal/horse.jpg,7000.0,animate,drawing,627.2565657599055,True,,MEM,MEM_0063,2022-12-08 22:04:16
,visual-trial,18,197070,0.0-18.0,,,,,1182.0,,,arrowleft,animate (left arrow)&emsp;&emsp;&emsp;&emsp;inanimate (right arrow),semantic,3000.0,,/static/object_pics/picture_bird/canary.jpg,7000.0,animate,photo,1215.8143265723602,True,,MEM,MEM_0063,2022-12-08 22:04:16
,visual-trial,19,201725,0.0-19.0,,,,,1032.0,,,arrowright,photo (left arrow)&emsp;&emsp;&emsp;&emsp;drawing (right arrow),perceptual,3000.0,,/static/object_pics/drawing_insect/centipede.jpg,7000.0,animate,drawing,606.4120921570774,True,,MEM,MEM_0063,2022-12-08 22:04:16
,visual-trial,20,206446,0.0-20.0,,,,,1019.0,,,arrowleft,animate (left arrow)&emsp;&emsp;&emsp;&emsp;inanimate (right arrow),semantic,3000.0,,/static/object_pics/picture_sea/starfish02.jpg,7000.0,animate,photo,681.605789744438,True,,MEM,MEM_0063,2022-12-08 22:04:16
,visual-trial,21,211566,0.0-21.0,,,,,950.0,,,arrowright,animate (left arrow)&emsp;&emsp;&emsp;&emsp;inanimate (right arrow),semantic,3000.0,,/static/object_pics/picture_fruit/apricot.jpg,7000.0,inanimate,photo,1159.0589740432206,True,,MEM,MEM_0063,2022-12-08 22:04:16
,visual-trial,22,216349,0.0-22.0,,,,,1016.0,,,arrowright,photo (left arrow)&emsp;&emsp;&emsp;&emsp;drawing (right arrow),perceptual,3000.0,,/static/object_pics/drawing_clothe/belt.jpg,7000.0,inanimate,drawing,763.8306236403796,True,,MEM,MEM_0063,2022-12-08 22:04:16
,visual-trial,23,222397,0.0-23.0,,,,,1803.0,,,arrowright,photo (left arrow)&emsp;&emsp;&emsp;&emsp;drawing (right arrow),perceptual,3000.0,,/static/object_pics/picture_bird/hen.jpg,7000.0,animate,photo,1231.9912959293626,False,,MEM,MEM_0063,2022-12-08 22:04:16
,visual-trial,24,226957,0.0-24.0,,,,,882.0,,,arrowright,photo (left arrow)&emsp;&emsp;&emsp;&emsp;drawing (right arrow),perceptual,3000.0,,/static/object_pics/drawing_clothe/sock.jpg,7000.0,inanimate,drawing,650.46799231435,True,,MEM,MEM_0063,2022-12-08 22:04:16
,visual-trial,25,231949,0.0-25.0,,,,,856.0,,,arrowleft,animate (left arrow)&emsp;&emsp;&emsp;&emsp;inanimate (right arrow),semantic,3000.0,,/static/object_pics/drawing_mammal/rabbit.jpg,7000.0,animate,drawing,1125.4730374016303,True,,MEM,MEM_0063,2022-12-08 22:04:16
,visual-trial,26,236862,0.0-26.0,,,,,926.0,,,arrowleft,animate (left arrow)&emsp;&emsp;&emsp;&emsp;inanimate (right arrow),semantic,3000.0,,/static/object_pics/picture_bird/duck.jpg,7000.0,animate,photo,973.6768112395002,True,,MEM,MEM_0063,2022-12-08 22:04:16
,visual-trial,27,241965,0.0-27.0,,,,,886.0,,,arrowright,photo (left arrow)&emsp;&emsp;&emsp;&emsp;drawing (right arrow),perceptual,3000.0,,/static/object_pics/drawing_clothe/shirt.jpg,7000.0,inanimate,drawing,1212.38402214004,True,,MEM,MEM_0063,2022-12-08 22:04:16
,visual-trial,28,246462,0.0-28.0,,,,,899.0,,,arrowright,animate (left arrow)&emsp;&emsp;&emsp;&emsp;inanimate (right arrow),semantic,3000.0,,/static/object_pics/picture_fruit/banana.jpg,7000.0,inanimate,photo,584.5934674182313,True,,MEM,MEM_0063,2022-12-08 22:04:16
,visual-trial,29,251309,0.0-29.0,,,,,778.0,,,arrowleft,animate (left arrow)&emsp;&emsp;&emsp;&emsp;inanimate (right arrow),semantic,3000.0,,/static/object_pics/drawing_insect/butterfly.jpg,7000.0,animate,drawing,1057.4738892604903,True,,MEM,MEM_0063,2022-12-08 22:04:16
,visual-trial,30,256701,0.0-30.0,,,,,953.0,,,arrowright,photo (left arrow)&emsp;&emsp;&emsp;&emsp;drawing (right arrow),perceptual,3000.0,,/static/object_pics/drawing_mammal/antelope.jpg,7000.0,animate,drawing,1412.2122379378284,True,,MEM,MEM_0063,2022-12-08 22:04:16
,visual-trial,31,262238,0.0-31.0,,,,,1895.0,,,arrowright,photo (left arrow)&emsp;&emsp;&emsp;&emsp;drawing (right arrow),perceptual,3000.0,,/static/object_pics/drawing_veggie/garlic.jpg,7000.0,inanimate,drawing,618.171296408911,True,,MEM,MEM_0063,2022-12-08 22:04:16
,visual-trial,32,266765,0.0-32.0,,,,,935.0,,,arrowleft,animate (left arrow)&emsp;&emsp;&emsp;&emsp;inanimate (right arrow),semantic,3000.0,,/static/object_pics/drawing_mammal/wolf.jpg,7000.0,animate,drawing,578.0051071056223,True,,MEM,MEM_0063,2022-12-08 22:04:16
,visual-trial,33,272093,0.0-33.0,,,,,1028.0,,,arrowleft,animate (left arrow)&emsp;&emsp;&emsp;&emsp;inanimate (right arrow),semantic,3000.0,,/static/object_pics/picture_bird/ostrich.jpg,7000.0,animate,photo,1281.47369158506,True,,MEM,MEM_0063,2022-12-08 22:04:16
,visual-trial,34,277614,0.0-34.0,,,,,1067.0,,,arrowright,animate (left arrow)&emsp;&emsp;&emsp;&emsp;inanimate (right arrow),semantic,3000.0,,/static/object_pics/picture_fruit/lemon.jpg,7000.0,inanimate,photo,1438.6063539145925,True,,MEM,MEM_0063,2022-12-08 22:04:16
,visual-trial,35,282573,0.0-35.0,,,,,877.0,,,arrowright,animate (left arrow)&emsp;&emsp;&emsp;&emsp;inanimate (right arrow),semantic,3000.0,,/static/object_pics/drawing_veggie/lettuce.jpg,7000.0,inanimate,drawing,1072.8053879449694,True,,MEM,MEM_0063,2022-12-08 22:04:16
,visual-trial,36,287870,0.0-36.0,,,,,882.0,,,arrowleft,photo (left arrow)&emsp;&emsp;&emsp;&emsp;drawing (right arrow),perceptual,3000.0,,/static/object_pics/picture_sea/octopus.jpg,7000.0,animate,photo,1401.3169647976808,True,,MEM,MEM_0063,2022-12-08 22:04:16
,visual-trial,37,293276,0.0-37.0,,,,,1116.0,,,arrowleft,animate (left arrow)&emsp;&emsp;&emsp;&emsp;inanimate (right arrow),semantic,3000.0,,/static/object_pics/picture_sea/pufferfish.jpg,7000.0,animate,photo,1281.8808882440894,True,,MEM,MEM_0063,2022-12-08 22:04:16
,visual-trial,38,298365,0.0-38.0,,,,,902.0,,,arrowright,animate (left arrow)&emsp;&emsp;&emsp;&emsp;inanimate (right arrow),semantic,3000.0,,/static/object_pics/picture_electronic/camera.jpg,7000.0,inanimate,photo,1166.460489247691,True,,MEM,MEM_0063,2022-12-08 22:04:16
,visual-trial,39,302942,0.0-39.0,,,,,837.0,,,arrowright,animate (left arrow)&emsp;&emsp;&emsp;&emsp;inanimate (right arrow),semantic,3000.0,,/static/object_pics/drawing_veggie/artichoke.jpg,7000.0,inanimate,drawing,721.7439591806227,True,,MEM,MEM_0063,2022-12-08 22:04:16
,visual-trial,40,308206,0.0-40.0,,,,,1019.0,,,arrowright,photo (left arrow)&emsp;&emsp;&emsp;&emsp;drawing (right arrow),perceptual,3000.0,,/static/object_pics/drawing_veggie/carrots.jpg,7000.0,inanimate,drawing,1226.919651040268,True,,MEM,MEM_0063,2022-12-08 22:04:16
,visual-trial,41,313596,0.0-41.0,,,,,1027.0,,,arrowright,photo (left arrow)&emsp;&emsp;&emsp;&emsp;drawing (right arrow),perceptual,3000.0,,/static/object_pics/drawing_insect/beetle.jpg,7000.0,animate,drawing,1339.5400264515242,True,,MEM,MEM_0063,2022-12-08 22:04:16
,html-keyboard-response,42,345661,0.0-42.0,,,,,32063.0,"
        <p>In that last set of trials, you were correct 91% of the time.</p>
        <p>Feel free to take a brief break. In the next set of trials, you will continue with the same task.
        The instructions are displayed below, in case you need a refresher.
        Press the space bar when you are ready to continue.</p>
        <p>In this task, you will see a series of objects. On some trials, your job is to determine
        whether the object shown is a color photograph or a line drawing. On other trials, your job
        is to determine whether the object represented is animate or inanimate.

        <br><br>
        You will know which response to make depending on the initial display, which will say
        ""animate / inanimate"" or ""photo / drawing"".
        <br>
        You will be able to use the left arrow key to report animate/photo and the right arrow key to report inanimate/drawing.
        <br>
        Please respond as quickly as possible, and use your dominant hand to make your responses.
        <br><br>
        You will be able to use the left arrow key to report animate/photo and the right arrow key to report inanimate/drawing.
        <br><br>
        <img src=""/static/instructions_pics/visual_pic.png"" height=""300px"">
        <br>
        In the example in the top row, the correct response is animate (left arrow key). In the example in the bottom row, the correct response is photo (left arrow key).
        <br>
        <br>When you are ready to begin, press the space bar.</p>", ,,,,,,,,,,,,,MEM,MEM_0063,2022-12-08 22:04:16
,visual-trial,43,350141,0.0-43.0,,,,,856.0,,,arrowright,animate (left arrow)&emsp;&emsp;&emsp;&emsp;inanimate (right arrow),semantic,3000.0,,/static/object_pics/picture_electronic/gamepad.jpg,7000.0,inanimate,photo,609.390915833214,True,,MEM,MEM_0063,2022-12-08 22:04:16
,visual-trial,44,354494,0.0-44.0,,,,,761.0,,,arrowright,photo (left arrow)&emsp;&emsp;&emsp;&emsp;drawing (right arrow),perceptual,3000.0,,/static/object_pics/drawing_veggie/pepper.jpg,7000.0,inanimate,drawing,569.4513155478801,True,,MEM,MEM_0063,2022-12-08 22:04:16
,visual-trial,45,360382,0.0-45.0,,,,,1916.0,,,arrowleft,photo (left arrow)&emsp;&emsp;&emsp;&emsp;drawing (right arrow),perceptual,3000.0,,/static/object_pics/picture_bird/vulture.jpg,7000.0,animate,photo,964.1068416755683,True,,MEM,MEM_0063,2022-12-08 22:04:16
,visual-trial,46,365389,0.0-46.0,,,,,741.0,,,arrowright,animate (left arrow)&emsp;&emsp;&emsp;&emsp;inanimate (right arrow),semantic,3000.0,,/static/object_pics/drawing_clothe/hoodie.jpg,7000.0,inanimate,drawing,1264.8756551543302,True,,MEM,MEM_0063,2022-12-08 22:04:16
,visual-trial,47,370846,0.0-47.0,,,,,1514.0,,,arrowleft,photo (left arrow)&emsp;&emsp;&emsp;&emsp;drawing (right arrow),perceptual,3000.0,,/static/object_pics/picture_fruit/watermelon.jpg,7000.0,inanimate,photo,926.6232399411476,True,,MEM,MEM_0063,2022-12-08 22:04:16
,visual-trial,48,376541,0.0-48.0,,,,,1471.0,,,arrowleft,photo (left arrow)&emsp;&emsp;&emsp;&emsp;drawing (right arrow),perceptual,3000.0,,/static/object_pics/picture_electronic/satellite dish.jpg,7000.0,inanimate,photo,1212.5337733084666,True,,MEM,MEM_0063,2022-12-08 22:04:16
,visual-trial,49,382621,0.0-49.0,,,,,1896.0,,,arrowleft,photo (left arrow)&emsp;&emsp;&emsp;&emsp;drawing (right arrow),perceptual,3000.0,,/static/object_pics/picture_sea/jellyfish.jpg,7000.0,animate,photo,1175.9769116367652,True,,MEM,MEM_0063,2022-12-08 22:04:16
,visual-trial,50,387374,0.0-50.0,,,,,763.0,,,arrowright,photo (left arrow)&emsp;&emsp;&emsp;&emsp;drawing (right arrow),perceptual,3000.0,,/static/object_pics/drawing_veggie/mushrooms.jpg,7000.0,inanimate,drawing,969.2978400353289,True,,MEM,MEM_0063,2022-12-08 22:04:16
,visual-trial,51,392477,0.0-51.0,,,,,1514.0,,,arrowleft,photo (left arrow)&emsp;&emsp;&emsp;&emsp;drawing (right arrow),perceptual,3000.0,,/static/object_pics/picture_bird/hummingbird.jpg,7000.0,animate,photo,585.2431755405838,True,,MEM,MEM_0063,2022-12-08 22:04:16
,visual-trial,52,396956,0.0-52.0,,,,,768.0,,,arrowright,animate (left arrow)&emsp;&emsp;&emsp;&emsp;inanimate (right arrow),semantic,3000.0,,/static/object_pics/picture_electronic/keyboard.jpg,7000.0,inanimate,photo,695.2984432472527,True,,MEM,MEM_0063,2022-12-08 22:04:16
,visual-trial,53,401997,0.0-53.0,,,,,844.0,,,arrowright,animate (left arrow)&emsp;&emsp;&emsp;&emsp;inanimate (right arrow),semantic,3000.0,,/static/object_pics/picture_fruit/grapes.jpg,7000.0,inanimate,photo,1174.413223973595,True,,MEM,MEM_0063,2022-12-08 22:04:16
,visual-trial,54,406877,0.0-54.0,,,,,842.0,,,arrowright,photo (left arrow)&emsp;&emsp;&emsp;&emsp;drawing (right arrow),perceptual,3000.0,,/static/object_pics/drawing_mammal/gorilla.jpg,7000.0,animate,drawing,1030.604887854425,True,,MEM,MEM_0063,2022-12-08 22:04:16
,visual-trial,55,412445,0.0-55.0,,,,,1316.0,,,arrowleft,animate (left arrow)&emsp;&emsp;&emsp;&emsp;inanimate (right arrow),semantic,3000.0,,/static/object_pics/picture_bird/penguin.jpg,7000.0,animate,photo,1242.1719506281393,True,,MEM,MEM_0063,2022-12-08 22:04:16
,visual-trial,56,417341,0.0-56.0,,,,,1083.0,,,arrowleft,animate (left arrow)&emsp;&emsp;&emsp;&emsp;inanimate (right arrow),semantic,3000.0,,/static/object_pics/drawing_mammal/elephant.jpg,7000.0,animate,drawing,792.3451700990383,True,,MEM,MEM_0063,2022-12-08 22:04:16
,visual-trial,57,422717,0.0-57.0,,,,,1738.0,,,arrowleft,photo (left arrow)&emsp;&emsp;&emsp;&emsp;drawing (right arrow),perceptual,3000.0,,/static/object_pics/picture_sea/dolphin.jpg,7000.0,animate,photo,621.1805236486186,True,,MEM,MEM_0063,2022-12-08 22:04:16
,visual-trial,58,428028,0.0-58.0,,,,,1003.0,,,arrowleft,photo (left arrow)&emsp;&emsp;&emsp;&emsp;drawing (right arrow),perceptual,3000.0,,/static/object_pics/picture_electronic/hairdryer.jpg,7000.0,inanimate,photo,1300.2999442786845,True,,MEM,MEM_0063,2022-12-08 22:04:16
,visual-trial,59,432558,0.0-59.0,,,,,793.0,,,arrowright,photo (left arrow)&emsp;&emsp;&emsp;&emsp;drawing (right arrow),perceptual,3000.0,,/static/object_pics/drawing_clothe/slipper.jpg,7000.0,inanimate,drawing,708.863021707411,True,,MEM,MEM_0063,2022-12-08 22:04:16
,visual-trial,60,438477,0.0-60.0,,,,,1484.0,,,arrowright,photo (left arrow)&emsp;&emsp;&emsp;&emsp;drawing (right arrow),perceptual,3000.0,,/static/object_pics/drawing_mammal/squirrel.jpg,7000.0,animate,drawing,1424.505782622626,True,,MEM,MEM_0063,2022-12-08 22:04:16
,visual-trial,61,444622,0.0-61.0,,,,,1878.0,,,arrowleft,photo (left arrow)&emsp;&emsp;&emsp;&emsp;drawing (right arrow),perceptual,3000.0,,/static/object_pics/picture_sea/shrimp.jpg,7000.0,animate,photo,1238.1391635570358,True,,MEM,MEM_0063,2022-12-08 22:04:16
,visual-trial,62,451196,0.0-62.0,,,,,2891.0,,,arrowright,photo (left arrow)&emsp;&emsp;&emsp;&emsp;drawing (right arrow),perceptual,3000.0,,/static/object_pics/picture_sea/seaturtle.jpg,7000.0,animate,photo,679.4648408064961,False,,MEM,MEM_0063,2022-12-08 22:04:16
,visual-trial,63,456588,0.0-63.0,,,,,1353.0,,,arrowright,animate (left arrow)&emsp;&emsp;&emsp;&emsp;inanimate (right arrow),semantic,3000.0,,/static/object_pics/drawing_veggie/aubergine.jpg,7000.0,inanimate,drawing,1038.312657339378,True,,MEM,MEM_0063,2022-12-08 22:04:16
,visual-trial,64,461085,0.0-64.0,,,,,877.0,,,arrowright,photo (left arrow)&emsp;&emsp;&emsp;&emsp;drawing (right arrow),perceptual,3000.0,,/static/object_pics/drawing_clothe/high heels.jpg,7000.0,inanimate,drawing,600.7512626788437,True,,MEM,MEM_0063,2022-12-08 22:04:16
,visual-trial,65,465982,0.0-65.0,,,,,946.0,,,arrowleft,animate (left arrow)&emsp;&emsp;&emsp;&emsp;inanimate (right arrow),semantic,3000.0,,/static/object_pics/picture_bird/eagle.jpg,7000.0,animate,photo,933.6918351881475,True,,MEM,MEM_0063,2022-12-08 22:04:16
,visual-trial,66,471021,0.0-66.0,,,,,928.0,,,arrowright,animate (left arrow)&emsp;&emsp;&emsp;&emsp;inanimate (right arrow),semantic,3000.0,,/static/object_pics/picture_electronic/printer.jpg,7000.0,inanimate,photo,1108.8385767230034,True,,MEM,MEM_0063,2022-12-08 22:04:16
,visual-trial,67,476366,0.0-67.0,,,,,911.0,,,arrowleft,animate (left arrow)&emsp;&emsp;&emsp;&emsp;inanimate (right arrow),semantic,3000.0,,/static/object_pics/picture_sea/seal.jpg,7000.0,animate,photo,1410.8729071258872,True,,MEM,MEM_0063,2022-12-08 22:04:16
,visual-trial,68,482349,0.0-68.0,,,,,1523.0,,,arrowleft,photo (left arrow)&emsp;&emsp;&emsp;&emsp;drawing (right arrow),perceptual,3000.0,,/static/object_pics/picture_sea/mantaray.jpg,7000.0,animate,photo,1449.115146065229,True,,MEM,MEM_0063,2022-12-08 22:04:16
,visual-trial,69,487150,0.0-69.0,,,,,1041.0,,,arrowleft,animate (left arrow)&emsp;&emsp;&emsp;&emsp;inanimate (right arrow),semantic,3000.0,,/static/object_pics/drawing_insect/ant.jpg,7000.0,animate,drawing,742.2189991024509,True,,MEM,MEM_0063,2022-12-08 22:04:16
,visual-trial,70,492973,0.0-70.0,,,,,1421.0,,,arrowleft,photo (left arrow)&emsp;&emsp;&emsp;&emsp;drawing (right arrow),perceptual,3000.0,,/static/object_pics/picture_bird/pelican.jpg,7000.0,animate,photo,1383.9618261047071,True,,MEM,MEM_0063,2022-12-08 22:04:16
,visual-trial,71,498030,0.0-71.0,,,,,929.0,,,arrowright,animate (left arrow)&emsp;&emsp;&emsp;&emsp;inanimate (right arrow),semantic,3000.0,,/static/object_pics/drawing_clothe/bowtie.jpg,7000.0,inanimate,drawing,1118.2199084957056,True,,MEM,MEM_0063,2022-12-08 22:04:16
,visual-trial,72,503469,0.0-72.0,,,,,949.0,,,arrowleft,animate (left arrow)&emsp;&emsp;&emsp;&emsp;inanimate (right arrow),semantic,3000.0,,/static/object_pics/drawing_mammal/bear.jpg,7000.0,animate,drawing,1476.4478333982047,True,,MEM,MEM_0063,2022-12-08 22:04:16
,visual-trial,73,508701,0.0-73.0,,,,,893.0,,,arrowright,animate (left arrow)&emsp;&emsp;&emsp;&emsp;inanimate (right arrow),semantic,3000.0,,/static/object_pics/picture_electronic/radio02.jpg,7000.0,inanimate,photo,1323.9101001751694,True,,MEM,MEM_0063,2022-12-08 22:04:16
,visual-trial,74,513949,0.0-74.0,,,,,971.0,,,arrowright,animate (left arrow)&emsp;&emsp;&emsp;&emsp;inanimate (right arrow),semantic,3000.0,,/static/object_pics/picture_electronic/calculator.jpg,7000.0,inanimate,photo,1269.3918472905616,True,,MEM,MEM_0063,2022-12-08 22:04:16
,html-keyboard-response,75,546781,0.0-75.0,,,,,32831.0,"
        <p>In that last set of trials, you were correct 97% of the time.</p>
        <p>Feel free to take a brief break. In the next set of trials, you will continue with the same task.
        The instructions are displayed below, in case you need a refresher.
        Press the space bar when you are ready to continue.</p>
        <p>In this task, you will see a series of objects. On some trials, your job is to determine
        whether the object shown is a color photograph or a line drawing. On other trials, your job
        is to determine whether the object represented is animate or inanimate.

        <br><br>
        You will know which response to make depending on the initial display, which will say
        ""animate / inanimate"" or ""photo / drawing"".
        <br>
        You will be able to use the left arrow key to report animate/photo and the right arrow key to report inanimate/drawing.
        <br>
        Please respond as quickly as possible, and use your dominant hand to make your responses.
        <br><br>
        You will be able to use the left arrow key to report animate/photo and the right arrow key to report inanimate/drawing.
        <br><br>
        <img src=""/static/instructions_pics/visual_pic.png"" height=""300px"">
        <br>
        In the example in the top row, the correct response is animate (left arrow key). In the example in the bottom row, the correct response is photo (left arrow key).
        <br>
        <br>When you are ready to begin, press the space bar.</p>", ,,,,,,,,,,,,,MEM,MEM_0063,2022-12-08 22:04:16
,visual-trial,76,551709,0.0-76.0,,,,,800.0,,,arrowleft,photo (left arrow)&emsp;&emsp;&emsp;&emsp;drawing (right arrow),perceptual,3000.0,,/static/object_pics/picture_electronic/phone.jpg,7000.0,inanimate,photo,1111.0536759006254,True,,MEM,MEM_0063,2022-12-08 22:04:16
,visual-trial,77,556653,0.0-77.0,,,,,984.0,,,arrowleft,photo (left arrow)&emsp;&emsp;&emsp;&emsp;drawing (right arrow),perceptual,3000.0,,/static/object_pics/picture_bird/pigeon.jpg,7000.0,animate,photo,943.2429260885265,True,,MEM,MEM_0063,2022-12-08 22:04:16
,visual-trial,78,561214,0.0-78.0,,,,,957.0,,,arrowleft,photo (left arrow)&emsp;&emsp;&emsp;&emsp;drawing (right arrow),perceptual,3000.0,,/static/object_pics/picture_electronic/coffee maker.jpg,7000.0,inanimate,photo,599.4609939519157,True,,MEM,MEM_0063,2022-12-08 22:04:16
,visual-trial,79,565981,0.0-79.0,,,,,942.0,,,arrowleft,animate (left arrow)&emsp;&emsp;&emsp;&emsp;inanimate (right arrow),semantic,3000.0,,/static/object_pics/picture_sea/seahorse.jpg,7000.0,animate,photo,808.0867068989627,True,,MEM,MEM_0063,2022-12-08 22:04:16
,visual-trial,80,570781,0.0-80.0,,,,,862.0,,,arrowleft,animate (left arrow)&emsp;&emsp;&emsp;&emsp;inanimate (right arrow),semantic,3000.0,,/static/object_pics/drawing_insect/spider.jpg,7000.0,animate,drawing,927.4832189464595,True,,MEM,MEM_0063,2022-12-08 22:04:16
,visual-trial,81,577422,0.0-81.0,,,,,2457.0,,,arrowleft,photo (left arrow)&emsp;&emsp;&emsp;&emsp;drawing (right arrow),perceptual,3000.0,,/static/object_pics/picture_sea/swordfish.jpg,7000.0,animate,photo,1166.8598695256505,True,,MEM,MEM_0063,2022-12-08 22:04:16
,visual-trial,82,581932,0.0-82.0,,,,,659.0,,,arrowright,photo (left arrow)&emsp;&emsp;&emsp;&emsp;drawing (right arrow),perceptual,3000.0,,/static/object_pics/drawing_clothe/jeans.jpg,7000.0,inanimate,drawing,848.476845224754,True,,MEM,MEM_0063,2022-12-08 22:04:16
,visual-trial,83,587244,0.0-83.0,,,,,1456.0,,,arrowleft,animate (left arrow)&emsp;&emsp;&emsp;&emsp;inanimate (right arrow),semantic,3000.0,,/static/object_pics/picture_electronic/toaster.jpg,7000.0,inanimate,photo,846.0602334471939,False,,MEM,MEM_0063,2022-12-08 22:04:16
,visual-trial,84,591870,0.0-84.0,,,,,829.0,,,arrowright,photo (left arrow)&emsp;&emsp;&emsp;&emsp;drawing (right arrow),perceptual,3000.0,,/static/object_pics/drawing_veggie/pumpkin.jpg,7000.0,inanimate,drawing,778.2244721025295,True,,MEM,MEM_0063,2022-12-08 22:04:16
,visual-trial,85,596462,0.0-85.0,,,,,790.0,,,arrowleft,animate (left arrow)&emsp;&emsp;&emsp;&emsp;inanimate (right arrow),semantic,3000.0,,/static/object_pics/picture_sea/shark.jpg,7000.0,animate,photo,795.3870956406454,True,,MEM,MEM_0063,2022-12-08 22:04:16
,visual-trial,86,601822,0.0-86.0,,,,,854.0,,,arrowright,animate (left arrow)&emsp;&emsp;&emsp;&emsp;inanimate (right arrow),semantic,3000.0,,/static/object_pics/drawing_clothe/sport t-shirt.jpg,7000.0,inanimate,drawing,1494.2968229661196,True,,MEM,MEM_0063,2022-12-08 22:04:16
,visual-trial,87,606285,0.0-87.0,,,,,823.0,,,arrowright,animate (left arrow)&emsp;&emsp;&emsp;&emsp;inanimate (right arrow),semantic,3000.0,,/static/object_pics/drawing_clothe/gloves.jpg,7000.0,inanimate,drawing,628.49236592522,True,,MEM,MEM_0063,2022-12-08 22:04:16
,visual-trial,88,611998,0.0-88.0,,,,,1581.0,,,arrowright,photo (left arrow)&emsp;&emsp;&emsp;&emsp;drawing (right arrow),perceptual,3000.0,,/static/object_pics/picture_sea/crab.jpg,7000.0,animate,photo,1101.9896952481777,False,,MEM,MEM_0063,2022-12-08 22:04:16
,visual-trial,89,617197,0.0-89.0,,,,,1377.0,,,arrowleft,animate (left arrow)&emsp;&emsp;&emsp;&emsp;inanimate (right arrow),semantic,3000.0,,/static/object_pics/drawing_mammal/rhinoceros.jpg,7000.0,animate,drawing,804.6441706169264,True,,MEM,MEM_0063,2022-12-08 22:04:16
,visual-trial,90,622078,0.0-90.0,,,,,1106.0,,,arrowright,photo (left arrow)&emsp;&emsp;&emsp;&emsp;drawing (right arrow),perceptual,3000.0,,/static/object_pics/drawing_veggie/cauliflower.jpg,7000.0,inanimate,drawing,757.4350587807993,True,,MEM,MEM_0063,2022-12-08 22:04:16
,visual-trial,91,626877,0.0-91.0,,,,,836.0,,,arrowright,photo (left arrow)&emsp;&emsp;&emsp;&emsp;drawing (right arrow),perceptual,3000.0,,/static/object_pics/drawing_veggie/potato.jpg,7000.0,inanimate,drawing,962.468348718088,True,,MEM,MEM_0063,2022-12-08 22:04:16
,visual-trial,92,632109,0.0-92.0,,,,,1381.0,,,arrowleft,photo (left arrow)&emsp;&emsp;&emsp;&emsp;drawing (right arrow),perceptual,3000.0,,/static/object_pics/picture_sea/piranha.jpg,7000.0,animate,photo,839.3420867705563,True,,MEM,MEM_0063,2022-12-08 22:04:16
,visual-trial,93,637101,0.0-93.0,,,,,820.0,,,arrowleft,photo (left arrow)&emsp;&emsp;&emsp;&emsp;drawing (right arrow),perceptual,3000.0,,/static/object_pics/picture_fruit/strawberry.jpg,7000.0,inanimate,photo,1167.7719976652356,True,,MEM,MEM_0063,2022-12-08 22:04:16
,visual-trial,94,642204,0.0-94.0,,,,,1020.0,,,arrowright,animate (left arrow)&emsp;&emsp;&emsp;&emsp;inanimate (right arrow),semantic,3000.0,,/static/object_pics/picture_fruit/pomegranate.jpg,7000.0,inanimate,photo,1069.244258028944,True,,MEM,MEM_0063,2022-12-08 22:04:16
,visual-trial,95,647021,0.0-95.0,,,,,883.0,,,arrowright,animate (left arrow)&emsp;&emsp;&emsp;&emsp;inanimate (right arrow),semantic,3000.0,,/static/object_pics/drawing_clothe/football sneaker.jpg,7000.0,inanimate,drawing,913.4532934136794,True,,MEM,MEM_0063,2022-12-08 22:04:16
,visual-trial,96,651708,0.0-96.0,,,,,894.0,,,arrowright,animate (left arrow)&emsp;&emsp;&emsp;&emsp;inanimate (right arrow),semantic,3000.0,,/static/object_pics/picture_fruit/pear.jpg,7000.0,inanimate,photo,775.7682241074853,True,,MEM,MEM_0063,2022-12-08 22:04:16
,visual-trial,97,656653,0.0-97.0,,,,,1009.0,,,arrowright,animate (left arrow)&emsp;&emsp;&emsp;&emsp;inanimate (right arrow),semantic,3000.0,,/static/object_pics/picture_fruit/papaya.jpg,7000.0,inanimate,photo,926.9525378556757,True,,MEM,MEM_0063,2022-12-08 22:04:16
,visual-trial,98,661692,0.0-98.0,,,,,912.0,,,arrowleft,animate (left arrow)&emsp;&emsp;&emsp;&emsp;inanimate (right arrow),semantic,3000.0,,/static/object_pics/drawing_mammal/bull.jpg,7000.0,animate,drawing,1111.703133312537,True,,MEM,MEM_0063,2022-12-08 22:04:16
,visual-trial,99,666798,0.0-99.0,,,,,893.0,,,arrowright,photo (left arrow)&emsp;&emsp;&emsp;&emsp;drawing (right arrow),perceptual,3000.0,,/static/object_pics/drawing_mammal/bison.jpg,7000.0,animate,drawing,1196.2307539089825,True,,MEM,MEM_0063,2022-12-08 22:04:16
,visual-trial,100,672062,0.0-100.0,,,,,872.0,,,arrowleft,animate (left arrow)&emsp;&emsp;&emsp;&emsp;inanimate (right arrow),semantic,3000.0,,/static/object_pics/drawing_insect/bumble bee.jpg,7000.0,animate,drawing,1382.828770161854,True,,MEM,MEM_0063,2022-12-08 22:04:16
,visual-trial,101,676989,0.0-101.0,,,,,853.0,,,arrowleft,animate (left arrow)&emsp;&emsp;&emsp;&emsp;inanimate (right arrow),semantic,3000.0,,/static/object_pics/drawing_insect/ladybug.jpg,7000.0,animate,drawing,1056.6365863632984,True,,MEM,MEM_0063,2022-12-08 22:04:16
,visual-trial,102,681789,0.0-102.0,,,,,1108.0,,,arrowleft,photo (left arrow)&emsp;&emsp;&emsp;&emsp;drawing (right arrow),perceptual,3000.0,,/static/object_pics/picture_fruit/pineapple.jpg,7000.0,inanimate,photo,681.7024363719111,True,,MEM,MEM_0063,2022-12-08 22:04:16
,visual-trial,103,686349,0.0-103.0,,,,,807.0,,,arrowright,photo (left arrow)&emsp;&emsp;&emsp;&emsp;drawing (right arrow),perceptual,3000.0,,/static/object_pics/drawing_veggie/asparagus.jpg,7000.0,inanimate,drawing,742.3282403913034,True,,MEM,MEM_0063,2022-12-08 22:04:16
,visual-trial,104,691644,0.0-104.0,,,,,1242.0,,,arrowleft,photo (left arrow)&emsp;&emsp;&emsp;&emsp;drawing (right arrow),perceptual,3000.0,,/static/object_pics/picture_fruit/apple.jpg,7000.0,inanimate,photo,1042.2521138691384,True,,MEM,MEM_0063,2022-12-08 22:04:16
,visual-trial,105,696974,0.0-105.0,,,,,900.0,,,arrowright,photo (left arrow)&emsp;&emsp;&emsp;&emsp;drawing (right arrow),perceptual,3000.0,,/static/object_pics/drawing_veggie/cucumber.jpg,7000.0,inanimate,drawing,1416.7109068442942,True,,MEM,MEM_0063,2022-12-08 22:04:16
,visual-trial,106,702445,0.0-106.0,,,,,1172.0,,,arrowright,photo (left arrow)&emsp;&emsp;&emsp;&emsp;drawing (right arrow),perceptual,3000.0,,/static/object_pics/drawing_mammal/giraffe.jpg,7000.0,animate,drawing,1290.1523440090377,True,,MEM,MEM_0063,2022-12-08 22:04:16
,visual-trial,107,707054,0.0-107.0,,,,,788.0,,,arrowright,photo (left arrow)&emsp;&emsp;&emsp;&emsp;drawing (right arrow),perceptual,3000.0,,/static/object_pics/drawing_mammal/lion.jpg,7000.0,animate,drawing,811.1547289528924,True,,MEM,MEM_0063,2022-12-08 22:04:16
,html-keyboard-response,108,724414,0.0-108.0,,,,,17360.0,"
        <p>In that last set of trials, you were correct 94% of the time.</p>
        <p>Feel free to take a brief break. In the next set of trials, you will continue with the same task.
        The instructions are displayed below, in case you need a refresher.
        Press the space bar when you are ready to continue.</p>
        <p>In this task, you will see a series of objects. On some trials, your job is to determine
        whether the object shown is a color photograph or a line drawing. On other trials, your job
        is to determine whether the object represented is animate or inanimate.

        <br><br>
        You will know which response to make depending on the initial display, which will say
        ""animate / inanimate"" or ""photo / drawing"".
        <br>
        You will be able to use the left arrow key to report animate/photo and the right arrow key to report inanimate/drawing.
        <br>
        Please respond as quickly as possible, and use your dominant hand to make your responses.
        <br><br>
        You will be able to use the left arrow key to report animate/photo and the right arrow key to report inanimate/drawing.
        <br><br>
        <img src=""/static/instructions_pics/visual_pic.png"" height=""300px"">
        <br>
        In the example in the top row, the correct response is animate (left arrow key). In the example in the bottom row, the correct response is photo (left arrow key).
        <br>
        <br>When you are ready to begin, press the space bar.</p>", ,,,,,,,,,,,,,MEM,MEM_0063,2022-12-08 22:04:16
,visual-trial,109,729389,0.0-109.0,,,,,710.0,,,arrowright,photo (left arrow)&emsp;&emsp;&emsp;&emsp;drawing (right arrow),perceptual,3000.0,,/static/object_pics/drawing_veggie/onions.jpg,7000.0,inanimate,drawing,1256.2436266480531,True,,MEM,MEM_0063,2022-12-08 22:04:16
,visual-trial,110,734446,0.0-110.0,,,,,1154.0,,,arrowleft,photo (left arrow)&emsp;&emsp;&emsp;&emsp;drawing (right arrow),perceptual,3000.0,,/static/object_pics/picture_bird/parrot.jpg,7000.0,animate,photo,886.7285134577029,True,,MEM,MEM_0063,2022-12-08 22:04:16
,visual-trial,111,739213,0.0-111.0,,,,,783.0,,,arrowright,animate (left arrow)&emsp;&emsp;&emsp;&emsp;inanimate (right arrow),semantic,3000.0,,/static/object_pics/picture_fruit/orange.jpg,7000.0,inanimate,photo,972.3093780486811,True,,MEM,MEM_0063,2022-12-08 22:04:16
,visual-trial,112,743757,0.0-112.0,,,,,850.0,,,arrowright,photo (left arrow)&emsp;&emsp;&emsp;&emsp;drawing (right arrow),perceptual,3000.0,,/static/object_pics/drawing_insect/snail.jpg,7000.0,animate,drawing,686.2540303279611,True,,MEM,MEM_0063,2022-12-08 22:04:16
,visual-trial,113,749070,0.0-113.0,,,,,1186.0,,,arrowright,animate (left arrow)&emsp;&emsp;&emsp;&emsp;inanimate (right arrow),semantic,3000.0,,/static/object_pics/picture_electronic/laptop.jpg,7000.0,inanimate,photo,1114.4435926117683,True,,MEM,MEM_0063,2022-12-08 22:04:16
,visual-trial,114,753885,0.0-114.0,,,,,963.0,,,arrowleft,photo (left arrow)&emsp;&emsp;&emsp;&emsp;drawing (right arrow),perceptual,3000.0,,/static/object_pics/picture_electronic/remote control.jpg,7000.0,inanimate,photo,837.4605124458847,True,,MEM,MEM_0063,2022-12-08 22:04:16
,visual-trial,115,758269,0.0-115.0,,,,,829.0,,,arrowleft,photo (left arrow)&emsp;&emsp;&emsp;&emsp;drawing (right arrow),perceptual,3000.0,,/static/object_pics/picture_electronic/handmixer.jpg,7000.0,inanimate,photo,540.1612262227768,True,,MEM,MEM_0063,2022-12-08 22:04:16
,visual-trial,116,763614,0.0-116.0,,,,,1164.0,,,arrowleft,photo (left arrow)&emsp;&emsp;&emsp;&emsp;drawing (right arrow),perceptual,3000.0,,/static/object_pics/picture_fruit/kiwi.jpg,7000.0,inanimate,photo,1162.8465577654276,True,,MEM,MEM_0063,2022-12-08 22:04:16
,visual-trial,117,768268,0.0-117.0,,,,,878.0,,,arrowleft,photo (left arrow)&emsp;&emsp;&emsp;&emsp;drawing (right arrow),perceptual,3000.0,,/static/object_pics/picture_electronic/computer mouse.jpg,7000.0,inanimate,photo,766.0288384067884,True,,MEM,MEM_0063,2022-12-08 22:04:16
,visual-trial,118,772782,0.0-118.0,,,,,833.0,,,arrowleft,animate (left arrow)&emsp;&emsp;&emsp;&emsp;inanimate (right arrow),semantic,3000.0,,/static/object_pics/drawing_mammal/kangaroo.jpg,7000.0,animate,drawing,666.2997514252452,True,,MEM,MEM_0063,2022-12-08 22:04:16
,visual-trial,119,777597,0.0-119.0,,,,,1006.0,,,arrowright,photo (left arrow)&emsp;&emsp;&emsp;&emsp;drawing (right arrow),perceptual,3000.0,,/static/object_pics/drawing_insect/scorpion.jpg,7000.0,animate,drawing,796.2116693347704,True,,MEM,MEM_0063,2022-12-08 22:04:16
,visual-trial,120,782316,0.0-120.0,,,,,666.0,,,arrowright,photo (left arrow)&emsp;&emsp;&emsp;&emsp;drawing (right arrow),perceptual,3000.0,,/static/object_pics/drawing_mammal/sheep.jpg,7000.0,animate,drawing,1038.4986638316027,True,,MEM,MEM_0063,2022-12-08 22:04:16
,visual-trial,121,787581,0.0-121.0,,,,,925.0,,,arrowleft,photo (left arrow)&emsp;&emsp;&emsp;&emsp;drawing (right arrow),perceptual,3000.0,,/static/object_pics/picture_electronic/microphone.jpg,7000.0,inanimate,photo,1328.3835982943256,True,,MEM,MEM_0063,2022-12-08 22:04:16
,visual-trial,122,793101,0.0-122.0,,,,,1010.0,,,arrowleft,animate (left arrow)&emsp;&emsp;&emsp;&emsp;inanimate (right arrow),semantic,3000.0,,/static/object_pics/drawing_mammal/camel.jpg,7000.0,animate,drawing,1484.4314053231537,True,,MEM,MEM_0063,2022-12-08 22:04:16
,visual-trial,123,798220,0.0-123.0,,,,,912.0,,,arrowright,photo (left arrow)&emsp;&emsp;&emsp;&emsp;drawing (right arrow),perceptual,3000.0,,/static/object_pics/drawing_clothe/dress.jpg,7000.0,inanimate,drawing,1176.3715248987228,True,,MEM,MEM_0063,2022-12-08 22:04:16
,visual-trial,124,803598,0.0-124.0,,,,,949.0,,,arrowleft,animate (left arrow)&emsp;&emsp;&emsp;&emsp;inanimate (right arrow),semantic,3000.0,,/static/object_pics/drawing_insect/fly.jpg,7000.0,animate,drawing,1424.596118132958,True,,MEM,MEM_0063,2022-12-08 22:04:16
,visual-trial,125,808925,0.0-125.0,,,,,1244.0,,,arrowright,animate (left arrow)&emsp;&emsp;&emsp;&emsp;inanimate (right arrow),semantic,3000.0,,/static/object_pics/picture_fruit/melon.jpg,7000.0,inanimate,photo,1065.0195241612164,True,,MEM,MEM_0063,2022-12-08 22:04:16
,visual-trial,126,813597,0.0-126.0,,,,,1157.0,,,arrowleft,animate (left arrow)&emsp;&emsp;&emsp;&emsp;inanimate (right arrow),semantic,3000.0,,/static/object_pics/picture_bird/peacock.jpg,7000.0,animate,photo,500.7427684711507,True,,MEM,MEM_0063,2022-12-08 22:04:16
,visual-trial,127,818124,0.0-127.0,,,,,866.0,,,arrowleft,animate (left arrow)&emsp;&emsp;&emsp;&emsp;inanimate (right arrow),semantic,3000.0,,/static/object_pics/drawing_insect/cockroach.jpg,7000.0,animate,drawing,645.4907341699409,True,,MEM,MEM_0063,2022-12-08 22:04:16
,visual-trial,128,823261,0.0-128.0,,,,,819.0,,,arrowright,animate (left arrow)&emsp;&emsp;&emsp;&emsp;inanimate (right arrow),semantic,3000.0,,/static/object_pics/drawing_veggie/corn.jpg,7000.0,inanimate,drawing,1298.5890305363578,True,,MEM,MEM_0063,2022-12-08 22:04:16
,visual-trial,129,828557,0.0-129.0,,,,,886.0,,,arrowright,photo (left arrow)&emsp;&emsp;&emsp;&emsp;drawing (right arrow),perceptual,3000.0,,/static/object_pics/drawing_insect/mosquito.jpg,7000.0,animate,drawing,1400.4348237207982,True,,MEM,MEM_0063,2022-12-08 22:04:16
,visual-trial,130,833660,0.0-130.0,,,,,897.0,,,arrowright,animate (left arrow)&emsp;&emsp;&emsp;&emsp;inanimate (right arrow),semantic,3000.0,,/static/object_pics/drawing_clothe/glasses.jpg,7000.0,inanimate,drawing,1184.9848334730327,True,,MEM,MEM_0063,2022-12-08 22:04:16
,visual-trial,131,838556,0.0-131.0,,,,,885.0,,,arrowleft,animate (left arrow)&emsp;&emsp;&emsp;&emsp;inanimate (right arrow),semantic,3000.0,,/static/object_pics/drawing_insect/grasshopper.jpg,7000.0,animate,drawing,997.4513096810242,True,,MEM,MEM_0063,2022-12-08 22:04:16
,visual-trial,132,843373,0.0-132.0,,,,,771.0,,,arrowright,animate (left arrow)&emsp;&emsp;&emsp;&emsp;inanimate (right arrow),semantic,3000.0,,/static/object_pics/drawing_veggie/tomato.jpg,7000.0,inanimate,drawing,1028.0326124527592,True,,MEM,MEM_0063,2022-12-08 22:04:16
,visual-trial,133,848526,0.0-133.0,,,,,795.0,,,arrowleft,animate (left arrow)&emsp;&emsp;&emsp;&emsp;inanimate (right arrow),semantic,3000.0,,/static/object_pics/drawing_insect/dragonfly.jpg,7000.0,animate,drawing,1331.3532183245488,True,,MEM,MEM_0063,2022-12-08 22:04:16
,visual-trial,134,853821,0.0-134.0,,,,,861.0,,,arrowleft,animate (left arrow)&emsp;&emsp;&emsp;&emsp;inanimate (right arrow),semantic,3000.0,,/static/object_pics/drawing_insect/mantis.jpg,7000.0,animate,drawing,1420.37050198836,True,,MEM,MEM_0063,2022-12-08 22:04:16
,visual-trial,135,858989,0.0-135.0,,,,,855.0,,,arrowleft,animate (left arrow)&emsp;&emsp;&emsp;&emsp;inanimate (right arrow),semantic,3000.0,,/static/object_pics/picture_bird/toucan.jpg,7000.0,animate,photo,1303.685480299486,True,,MEM,MEM_0063,2022-12-08 22:04:16
,visual-trial,136,863662,0.0-136.0,,,,,905.0,,,arrowright,photo (left arrow)&emsp;&emsp;&emsp;&emsp;drawing (right arrow),perceptual,3000.0,,/static/object_pics/drawing_clothe/hat.jpg,7000.0,inanimate,drawing,744.8056045338592,True,,MEM,MEM_0063,2022-12-08 22:04:16
,visual-trial,137,868941,0.0-137.0,,,,,810.0,,,arrowright,photo (left arrow)&emsp;&emsp;&emsp;&emsp;drawing (right arrow),perceptual,3000.0,,/static/object_pics/drawing_clothe/tie.jpg,7000.0,inanimate,drawing,1463.7648744269118,True,,MEM,MEM_0063,2022-12-08 22:04:16
,visual-trial,138,873886,0.0-138.0,,,,,949.0,,,arrowleft,animate (left arrow)&emsp;&emsp;&emsp;&emsp;inanimate (right arrow),semantic,3000.0,,/static/object_pics/picture_bird/flamingo.jpg,7000.0,animate,photo,968.4845120738324,True,,MEM,MEM_0063,2022-12-08 22:04:16
,visual-trial,139,878940,0.0-139.0,,,,,822.0,,,arrowright,photo (left arrow)&emsp;&emsp;&emsp;&emsp;drawing (right arrow),perceptual,3000.0,,/static/object_pics/drawing_clothe/scarf.jpg,7000.0,inanimate,drawing,1219.0830202957527,True,,MEM,MEM_0063,2022-12-08 22:04:16
,visual-trial,140,883357,0.0-140.0,,,,,770.0,,,arrowleft,photo (left arrow)&emsp;&emsp;&emsp;&emsp;drawing (right arrow),perceptual,3000.0,,/static/object_pics/picture_fruit/cherry.jpg,7000.0,inanimate,photo,644.5241576242579,True,,MEM,MEM_0063,2022-12-08 22:04:16
,html-keyboard-response,141,899790,0.0-141.0,,,,,16432.0,"
      <p>Thank you for your participation!</p>
      The goal of this study is to replicate previous findings that the timing of responses in memory-dependent tasks
      is rhythmic in nature (compared to the timing of responses in memory-independent tasks).
      You performed the memory-independent tasks in this study.
      <br>
      Your participation will allow us to better understand how memory works.
      Please do not share this information with other potential participants.
      <br>
      Press the space bar to continue.</p>", ,,,,,,,,,,,,,MEM,MEM_0063,2022-12-08 22:04:16
