success,trial_type,trial_index,time_elapsed,internal_node_id,timeout,failed_images,failed_audio,failed_video,rt,stimulus,response,key,instruction,instruction_class,instruction_duration,prompt,object,object_duration,animacy,style,jitter,accurate,question_order,exp,subjectId,date
True,fullscreen,0,3071,0.0-0.0,,,,,,,,,,,,,,,,,,,,MEM,MEM_0080,2022-12-08 23:20:02
True,preload,1,7599,0.0-1.0,False,[],[],[],,,,,,,,,,,,,,,,MEM,MEM_0080,2022-12-08 23:20:02
,html-keyboard-response,2,48042,0.0-2.0,,,,,40440.0,"
      <p>In this task, you will see a series of objects. On some trials, your job is to determine
      whether the object shown is a color photograph or a line drawing. On other trials, your job
      is to determine whether the object represented is animate or inanimate.

      <br><br>
      You will know which response to make depending on the initial display, which will say
      ""animate / inanimate"" or ""photo / drawing"".
      <br>
      <br>
      You will be able to use the left arrow key to report animate/photo and the right arrow key to report inanimate/drawing.
      <br>
      Please respond as quickly as possible, and use your dominant hand to make your responses.
      <br><br>
      <img src=""/static/instructions_pics/visual_pic.png"" height=""300px"">
      <br>
      In the example in the top row, the correct response is animate (left arrow key). In the example in the bottom row, the correct response is photo (left arrow key).
      <br>
      <br>You will first do some practice trials. When you are ready to begin, press the space bar.</p>", ,,,,,,,,,,,,,MEM,MEM_0080,2022-12-08 23:20:02
,visual-trial,3,54022,0.0-3.0,,,,,1902.0,,,arrowleft,animate (left arrow)&emsp;&emsp;&emsp;&emsp;inanimate (right arrow),semantic,3000.0,,/static/for_instructions/object_pics/drawing_bird/heron.jpg,7000.0,animate,drawing,1062.129162474764,True,,MEM,MEM_0080,2022-12-08 23:20:02
,visual-trial,4,58646,0.0-4.0,,,,,933.0,,,arrowleft,photo (left arrow)&emsp;&emsp;&emsp;&emsp;drawing (right arrow),perceptual,3000.0,,/static/for_instructions/object_pics/picture_electronic/flashlight.jpg,7000.0,inanimate,photo,671.9940733749015,True,,MEM,MEM_0080,2022-12-08 23:20:02
,visual-trial,5,64485,0.0-5.0,,,,,1340.0,,,arrowright,animate (left arrow)&emsp;&emsp;&emsp;&emsp;inanimate (right arrow),semantic,3000.0,,/static/for_instructions/object_pics/drawing_clothe/hockey helmet.jpg,7000.0,inanimate,drawing,1487.9188980129256,True,,MEM,MEM_0080,2022-12-08 23:20:02
,visual-trial,6,69031,0.0-6.0,,,,,839.0,,,arrowleft,photo (left arrow)&emsp;&emsp;&emsp;&emsp;drawing (right arrow),perceptual,3000.0,,/static/for_instructions/object_pics/picture_veggie/avocado.jpg,7000.0,inanimate,photo,694.9606989639145,True,,MEM,MEM_0080,2022-12-08 23:20:02
,survey-multi-choice,7,79187,0.0-7.0-0.0,,,,,10154.0,,"{'Style': 'True', 'Animacy': 'True'}",,,,,,,,,,,,"[0, 1]",MEM,MEM_0080,2022-12-08 23:20:02
,html-keyboard-response,8,81759,0.0-8.0,,,,,2568.0,"
      <p>Great job! Now you'll continue onto doing the main task.
      You will have the opportunity to take brief breaks at various points.
      Good luck!<br>Press the space bar to continue.</p>", ,,,,,,,,,,,,,MEM,MEM_0080,2022-12-08 23:20:02
True,fullscreen,9,89666,0.0-9.0,,,,,,,,,,,,,,,,,,,,MEM,MEM_0080,2022-12-08 23:20:02
,visual-trial,10,94038,0.0-10.0,,,,,725.0,,,arrowright,photo (left arrow)&emsp;&emsp;&emsp;&emsp;drawing (right arrow),perceptual,3000.0,,/static/object_pics/drawing_veggie/mushrooms.jpg,7000.0,inanimate,drawing,626.2788685618841,True,,MEM,MEM_0080,2022-12-08 23:20:02
,visual-trial,11,98863,0.0-11.0,,,,,822.0,,,arrowleft,photo (left arrow)&emsp;&emsp;&emsp;&emsp;drawing (right arrow),perceptual,3000.0,,/static/object_pics/picture_clothe/bowtie.jpg,7000.0,inanimate,photo,989.9397403196848,True,,MEM,MEM_0080,2022-12-08 23:20:02
,visual-trial,12,104001,0.0-12.0,,,,,680.0,,,arrowright,photo (left arrow)&emsp;&emsp;&emsp;&emsp;drawing (right arrow),perceptual,3000.0,,/static/object_pics/drawing_bird/duck.jpg,7000.0,animate,drawing,1441.6843262395732,True,,MEM,MEM_0080,2022-12-08 23:20:02
,visual-trial,13,109456,0.0-13.0,,,,,1037.0,,,arrowleft,animate (left arrow)&emsp;&emsp;&emsp;&emsp;inanimate (right arrow),semantic,3000.0,,/static/object_pics/drawing_fruit/kiwi.jpg,7000.0,inanimate,drawing,1397.7970376886994,False,,MEM,MEM_0080,2022-12-08 23:20:02
,visual-trial,14,114552,0.0-14.0,,,,,1239.0,,,arrowright,photo (left arrow)&emsp;&emsp;&emsp;&emsp;drawing (right arrow),perceptual,3000.0,,/static/object_pics/drawing_sea/mantaray.jpg,7000.0,animate,drawing,845.0603841662689,True,,MEM,MEM_0080,2022-12-08 23:20:02
,visual-trial,15,118851,0.0-15.0,,,,,531.0,,,arrowleft,photo (left arrow)&emsp;&emsp;&emsp;&emsp;drawing (right arrow),perceptual,3000.0,,/static/object_pics/picture_mammal/bear.jpg,7000.0,animate,photo,757.0457441288978,True,,MEM,MEM_0080,2022-12-08 23:20:02
,visual-trial,16,123565,0.0-16.0,,,,,628.0,,,arrowright,photo (left arrow)&emsp;&emsp;&emsp;&emsp;drawing (right arrow),perceptual,3000.0,,/static/object_pics/drawing_bird/parrot.jpg,7000.0,animate,drawing,1072.0496829190627,True,,MEM,MEM_0080,2022-12-08 23:20:02
,visual-trial,17,128425,0.0-17.0,,,,,760.0,,,arrowleft,animate (left arrow)&emsp;&emsp;&emsp;&emsp;inanimate (right arrow),semantic,3000.0,,/static/object_pics/picture_electronic/microphone.jpg,7000.0,inanimate,photo,1082.9961628245683,False,,MEM,MEM_0080,2022-12-08 23:20:02
,visual-trial,18,132913,0.0-18.0,,,,,692.0,,,arrowleft,photo (left arrow)&emsp;&emsp;&emsp;&emsp;drawing (right arrow),perceptual,3000.0,,/static/object_pics/picture_insect/spider.jpg,7000.0,animate,photo,780.0025049961661,True,,MEM,MEM_0080,2022-12-08 23:20:02
,visual-trial,19,138501,0.0-19.0,,,,,1437.0,,,arrowleft,animate (left arrow)&emsp;&emsp;&emsp;&emsp;inanimate (right arrow),semantic,3000.0,,/static/object_pics/drawing_sea/crab.jpg,7000.0,animate,drawing,1138.7111475123224,True,,MEM,MEM_0080,2022-12-08 23:20:02
,visual-trial,20,143953,0.0-20.0,,,,,1064.0,,,arrowleft,animate (left arrow)&emsp;&emsp;&emsp;&emsp;inanimate (right arrow),semantic,3000.0,,/static/object_pics/picture_insect/centipede.jpg,7000.0,animate,photo,1370.2465570034133,True,,MEM,MEM_0080,2022-12-08 23:20:02
,visual-trial,21,148769,0.0-21.0,,,,,608.0,,,arrowleft,photo (left arrow)&emsp;&emsp;&emsp;&emsp;drawing (right arrow),perceptual,3000.0,,/static/object_pics/picture_electronic/phone.jpg,7000.0,inanimate,photo,1195.1602458663301,True,,MEM,MEM_0080,2022-12-08 23:20:02
,visual-trial,22,153502,0.0-22.0,,,,,974.0,,,arrowleft,animate (left arrow)&emsp;&emsp;&emsp;&emsp;inanimate (right arrow),semantic,3000.0,,/static/object_pics/picture_clothe/sock02.jpg,7000.0,inanimate,photo,742.2204395923086,False,,MEM,MEM_0080,2022-12-08 23:20:02
,visual-trial,23,157937,0.0-23.0,,,,,895.0,,,arrowright,photo (left arrow)&emsp;&emsp;&emsp;&emsp;drawing (right arrow),perceptual,3000.0,,/static/object_pics/drawing_fruit/apricot.jpg,7000.0,inanimate,drawing,519.3967274449693,True,,MEM,MEM_0080,2022-12-08 23:20:02
,visual-trial,24,163376,0.0-24.0,,,,,1131.0,,,arrowleft,animate (left arrow)&emsp;&emsp;&emsp;&emsp;inanimate (right arrow),semantic,3000.0,,/static/object_pics/drawing_bird/penguin.jpg,7000.0,animate,drawing,1278.3075560768339,True,,MEM,MEM_0080,2022-12-08 23:20:02
,visual-trial,25,168349,0.0-25.0,,,,,724.0,,,arrowright,photo (left arrow)&emsp;&emsp;&emsp;&emsp;drawing (right arrow),perceptual,3000.0,,/static/object_pics/drawing_sea/piranha.jpg,7000.0,animate,drawing,1233.9703404233956,True,,MEM,MEM_0080,2022-12-08 23:20:02
,visual-trial,26,172618,0.0-26.0,,,,,713.0,,,arrowleft,photo (left arrow)&emsp;&emsp;&emsp;&emsp;drawing (right arrow),perceptual,3000.0,,/static/object_pics/picture_insect/beetle.jpg,7000.0,animate,photo,538.5283776678565,True,,MEM,MEM_0080,2022-12-08 23:20:02
,visual-trial,27,177361,0.0-27.0,,,,,776.0,,,arrowleft,photo (left arrow)&emsp;&emsp;&emsp;&emsp;drawing (right arrow),perceptual,3000.0,,/static/object_pics/picture_insect/grasshopper.jpg,7000.0,animate,photo,946.1410939976566,True,,MEM,MEM_0080,2022-12-08 23:20:02
,visual-trial,28,181676,0.0-28.0,,,,,764.0,,,arrowleft,animate (left arrow)&emsp;&emsp;&emsp;&emsp;inanimate (right arrow),semantic,3000.0,,/static/object_pics/picture_clothe/hat.jpg,7000.0,inanimate,photo,540.8194594086408,False,,MEM,MEM_0080,2022-12-08 23:20:02
,visual-trial,29,186642,0.0-29.0,,,,,928.0,,,arrowright,photo (left arrow)&emsp;&emsp;&emsp;&emsp;drawing (right arrow),perceptual,3000.0,,/static/object_pics/drawing_fruit/lemon.jpg,7000.0,inanimate,drawing,1025.9683126943082,True,,MEM,MEM_0080,2022-12-08 23:20:02
,visual-trial,30,191388,0.0-30.0,,,,,762.0,,,arrowright,photo (left arrow)&emsp;&emsp;&emsp;&emsp;drawing (right arrow),perceptual,3000.0,,/static/object_pics/drawing_veggie/cauliflower.jpg,7000.0,inanimate,drawing,964.4119712557613,True,,MEM,MEM_0080,2022-12-08 23:20:02
,visual-trial,31,196079,0.0-31.0,,,,,951.0,,,arrowright,photo (left arrow)&emsp;&emsp;&emsp;&emsp;drawing (right arrow),perceptual,3000.0,,/static/object_pics/drawing_sea/starfish.jpg,7000.0,animate,drawing,721.3430148258312,True,,MEM,MEM_0080,2022-12-08 23:20:02
,visual-trial,32,200460,0.0-32.0,,,,,587.0,,,arrowleft,photo (left arrow)&emsp;&emsp;&emsp;&emsp;drawing (right arrow),perceptual,3000.0,,/static/object_pics/picture_mammal/rabbit.jpg,7000.0,animate,photo,777.6584668879092,True,,MEM,MEM_0080,2022-12-08 23:20:02
,visual-trial,33,205191,0.0-33.0,,,,,558.0,,,arrowleft,photo (left arrow)&emsp;&emsp;&emsp;&emsp;drawing (right arrow),perceptual,3000.0,,/static/object_pics/picture_mammal/bull.jpg,7000.0,animate,photo,1148.865920319423,True,,MEM,MEM_0080,2022-12-08 23:20:02
,visual-trial,34,210441,0.0-34.0,,,,,1160.0,,,arrowleft,animate (left arrow)&emsp;&emsp;&emsp;&emsp;inanimate (right arrow),semantic,3000.0,,/static/object_pics/drawing_fruit/grapes.jpg,7000.0,inanimate,drawing,1057.3651118460944,False,,MEM,MEM_0080,2022-12-08 23:20:02
,visual-trial,35,215656,0.0-35.0,,,,,848.0,,,arrowleft,animate (left arrow)&emsp;&emsp;&emsp;&emsp;inanimate (right arrow),semantic,3000.0,,/static/object_pics/picture_clothe/jeans.jpg,7000.0,inanimate,photo,1356.7246142214412,False,,MEM,MEM_0080,2022-12-08 23:20:02
,visual-trial,36,220897,0.0-36.0,,,,,761.0,,,arrowleft,animate (left arrow)&emsp;&emsp;&emsp;&emsp;inanimate (right arrow),semantic,3000.0,,/static/object_pics/picture_electronic/calculator.jpg,7000.0,inanimate,photo,1469.7819565167028,False,,MEM,MEM_0080,2022-12-08 23:20:02
,visual-trial,37,226057,0.0-37.0,,,,,816.0,,,arrowleft,animate (left arrow)&emsp;&emsp;&emsp;&emsp;inanimate (right arrow),semantic,3000.0,,/static/object_pics/picture_insect/cockroach.jpg,7000.0,animate,photo,1330.4486235315017,True,,MEM,MEM_0080,2022-12-08 23:20:02
,visual-trial,38,230986,0.0-38.0,,,,,834.0,,,arrowright,animate (left arrow)&emsp;&emsp;&emsp;&emsp;inanimate (right arrow),semantic,3000.0,,/static/object_pics/drawing_veggie/pepper.jpg,7000.0,inanimate,drawing,1082.2070510193214,True,,MEM,MEM_0080,2022-12-08 23:20:02
,visual-trial,39,235735,0.0-39.0,,,,,661.0,,,arrowleft,animate (left arrow)&emsp;&emsp;&emsp;&emsp;inanimate (right arrow),semantic,3000.0,,/static/object_pics/picture_insect/ladybug.jpg,7000.0,animate,photo,1076.2978578489126,True,,MEM,MEM_0080,2022-12-08 23:20:02
,visual-trial,40,240472,0.0-40.0,,,,,528.0,,,arrowleft,photo (left arrow)&emsp;&emsp;&emsp;&emsp;drawing (right arrow),perceptual,3000.0,,/static/object_pics/picture_clothe/football sneaker.jpg,7000.0,inanimate,photo,1198.5619907922203,True,,MEM,MEM_0080,2022-12-08 23:20:02
,visual-trial,41,245124,0.0-41.0,,,,,1043.0,,,arrowright,photo (left arrow)&emsp;&emsp;&emsp;&emsp;drawing (right arrow),perceptual,3000.0,,/static/object_pics/drawing_sea/seaturtle.jpg,7000.0,animate,drawing,594.3904190596372,True,,MEM,MEM_0080,2022-12-08 23:20:02
,html-keyboard-response,42,270072,0.0-42.0,,,,,24945.0,"
        <p>In that last set of trials, you were correct 78% of the time.</p>
        <p>Feel free to take a brief break. In the next set of trials, you will continue with the same task.
        The instructions are displayed below, in case you need a refresher.
        Press the space bar when you are ready to continue.</p>
        <p>In this task, you will see a series of objects. On some trials, your job is to determine
        whether the object shown is a color photograph or a line drawing. On other trials, your job
        is to determine whether the object represented is animate or inanimate.

        <br><br>
        You will know which response to make depending on the initial display, which will say
        ""animate / inanimate"" or ""photo / drawing"".
        <br>
        You will be able to use the left arrow key to report animate/photo and the right arrow key to report inanimate/drawing.
        <br>
        Please respond as quickly as possible, and use your dominant hand to make your responses.
        <br><br>
        You will be able to use the left arrow key to report animate/photo and the right arrow key to report inanimate/drawing.
        <br><br>
        <img src=""/static/instructions_pics/visual_pic.png"" height=""300px"">
        <br>
        In the example in the top row, the correct response is animate (left arrow key). In the example in the bottom row, the correct response is photo (left arrow key).
        <br>
        <br>When you are ready to begin, press the space bar.</p>", ,,,,,,,,,,,,,MEM,MEM_0080,2022-12-08 23:20:02
,visual-trial,43,274802,0.0-43.0,,,,,1018.0,,,arrowleft,photo (left arrow)&emsp;&emsp;&emsp;&emsp;drawing (right arrow),perceptual,3000.0,,/static/object_pics/picture_clothe/scarf.jpg,7000.0,inanimate,photo,701.7603634663581,True,,MEM,MEM_0080,2022-12-08 23:20:02
,visual-trial,44,279693,0.0-44.0,,,,,718.0,,,arrowright,photo (left arrow)&emsp;&emsp;&emsp;&emsp;drawing (right arrow),perceptual,3000.0,,/static/object_pics/drawing_bird/eagle.jpg,7000.0,animate,drawing,1164.4416458869212,True,,MEM,MEM_0080,2022-12-08 23:20:02
,visual-trial,45,284576,0.0-45.0,,,,,855.0,,,arrowright,photo (left arrow)&emsp;&emsp;&emsp;&emsp;drawing (right arrow),perceptual,3000.0,,/static/object_pics/drawing_sea/dolphin.jpg,7000.0,animate,drawing,1016.2850756119537,True,,MEM,MEM_0080,2022-12-08 23:20:02
,visual-trial,46,289605,0.0-46.0,,,,,828.0,,,arrowleft,animate (left arrow)&emsp;&emsp;&emsp;&emsp;inanimate (right arrow),semantic,3000.0,,/static/object_pics/picture_clothe/shirt.jpg,7000.0,inanimate,photo,1184.7919828670329,False,,MEM,MEM_0080,2022-12-08 23:20:02
,visual-trial,47,295622,0.0-47.0,,,,,1598.0,,,arrowleft,animate (left arrow)&emsp;&emsp;&emsp;&emsp;inanimate (right arrow),semantic,3000.0,,/static/object_pics/drawing_veggie/carrots.jpg,7000.0,inanimate,drawing,1409.4260650271417,False,,MEM,MEM_0080,2022-12-08 23:20:02
,visual-trial,48,300701,0.0-48.0,,,,,901.0,,,arrowleft,photo (left arrow)&emsp;&emsp;&emsp;&emsp;drawing (right arrow),perceptual,3000.0,,/static/object_pics/picture_electronic/keyboard.jpg,7000.0,inanimate,photo,1163.740626748042,True,,MEM,MEM_0080,2022-12-08 23:20:02
,visual-trial,49,305096,0.0-49.0,,,,,761.0,,,arrowleft,animate (left arrow)&emsp;&emsp;&emsp;&emsp;inanimate (right arrow),semantic,3000.0,,/static/object_pics/picture_mammal/bison.jpg,7000.0,animate,photo,618.8291755123907,True,,MEM,MEM_0080,2022-12-08 23:20:02
,visual-trial,50,309712,0.0-50.0,,,,,752.0,,,arrowleft,photo (left arrow)&emsp;&emsp;&emsp;&emsp;drawing (right arrow),perceptual,3000.0,,/static/object_pics/picture_insect/bumble bee.jpg,7000.0,animate,photo,849.249116569421,True,,MEM,MEM_0080,2022-12-08 23:20:02
,visual-trial,51,314683,0.0-51.0,,,,,1401.0,,,arrowleft,photo (left arrow)&emsp;&emsp;&emsp;&emsp;drawing (right arrow),perceptual,3000.0,,/static/object_pics/picture_electronic/remote control.jpg,7000.0,inanimate,photo,553.7697424880176,True,,MEM,MEM_0080,2022-12-08 23:20:02
,visual-trial,52,319396,0.0-52.0,,,,,1056.0,,,arrowleft,photo (left arrow)&emsp;&emsp;&emsp;&emsp;drawing (right arrow),perceptual,3000.0,,/static/object_pics/picture_clothe/glasses.jpg,7000.0,inanimate,photo,637.0112261369765,True,,MEM,MEM_0080,2022-12-08 23:20:02
,visual-trial,53,324657,0.0-53.0,,,,,1194.0,,,arrowright,photo (left arrow)&emsp;&emsp;&emsp;&emsp;drawing (right arrow),perceptual,3000.0,,/static/object_pics/drawing_fruit/coconut.jpg,7000.0,inanimate,drawing,1053.4163282651884,True,,MEM,MEM_0080,2022-12-08 23:20:02
,visual-trial,54,329643,0.0-54.0,,,,,820.0,,,arrowleft,photo (left arrow)&emsp;&emsp;&emsp;&emsp;drawing (right arrow),perceptual,3000.0,,/static/object_pics/picture_mammal/sheep.jpg,7000.0,animate,photo,1149.703983648214,True,,MEM,MEM_0080,2022-12-08 23:20:02
,visual-trial,55,334081,0.0-55.0,,,,,881.0,,,arrowleft,animate (left arrow)&emsp;&emsp;&emsp;&emsp;inanimate (right arrow),semantic,3000.0,,/static/object_pics/drawing_sea/seal.jpg,7000.0,animate,drawing,541.3626587998888,True,,MEM,MEM_0080,2022-12-08 23:20:02
,visual-trial,56,339318,0.0-56.0,,,,,1495.0,,,arrowleft,animate (left arrow)&emsp;&emsp;&emsp;&emsp;inanimate (right arrow),semantic,3000.0,,/static/object_pics/drawing_veggie/lettuce.jpg,7000.0,inanimate,drawing,725.3859739122183,False,,MEM,MEM_0080,2022-12-08 23:20:02
,visual-trial,57,344088,0.0-57.0,,,,,776.0,,,arrowleft,animate (left arrow)&emsp;&emsp;&emsp;&emsp;inanimate (right arrow),semantic,3000.0,,/static/object_pics/picture_electronic/laptop.jpg,7000.0,inanimate,photo,970.9351415139506,False,,MEM,MEM_0080,2022-12-08 23:20:02
,visual-trial,58,348885,0.0-58.0,,,,,748.0,,,arrowleft,photo (left arrow)&emsp;&emsp;&emsp;&emsp;drawing (right arrow),perceptual,3000.0,,/static/object_pics/picture_electronic/hairdryer.jpg,7000.0,inanimate,photo,1030.3404065663435,True,,MEM,MEM_0080,2022-12-08 23:20:02
,visual-trial,59,353397,0.0-59.0,,,,,774.0,,,arrowleft,animate (left arrow)&emsp;&emsp;&emsp;&emsp;inanimate (right arrow),semantic,3000.0,,/static/object_pics/picture_clothe/slipper.jpg,7000.0,inanimate,photo,723.5779494354736,False,,MEM,MEM_0080,2022-12-08 23:20:02
,visual-trial,60,358580,0.0-60.0,,,,,907.0,,,arrowleft,photo (left arrow)&emsp;&emsp;&emsp;&emsp;drawing (right arrow),perceptual,3000.0,,/static/object_pics/picture_electronic/printer.jpg,7000.0,inanimate,photo,1254.7163366349248,True,,MEM,MEM_0080,2022-12-08 23:20:02
,visual-trial,61,363532,0.0-61.0,,,,,883.0,,,arrowright,photo (left arrow)&emsp;&emsp;&emsp;&emsp;drawing (right arrow),perceptual,3000.0,,/static/object_pics/drawing_bird/flamingo.jpg,7000.0,animate,drawing,1049.6671743457118,True,,MEM,MEM_0080,2022-12-08 23:20:02
,visual-trial,62,369558,0.0-62.0,,,,,2076.0,,,arrowleft,animate (left arrow)&emsp;&emsp;&emsp;&emsp;inanimate (right arrow),semantic,3000.0,,/static/object_pics/drawing_sea/eel.jpg,7000.0,animate,drawing,928.8035781462347,True,,MEM,MEM_0080,2022-12-08 23:20:02
,visual-trial,63,374555,0.0-63.0,,,,,1402.0,,,arrowleft,animate (left arrow)&emsp;&emsp;&emsp;&emsp;inanimate (right arrow),semantic,3000.0,,/static/object_pics/drawing_fruit/papaya.jpg,7000.0,inanimate,drawing,579.8979946497402,False,,MEM,MEM_0080,2022-12-08 23:20:02
,visual-trial,64,379638,0.0-64.0,,,,,926.0,,,arrowleft,animate (left arrow)&emsp;&emsp;&emsp;&emsp;inanimate (right arrow),semantic,3000.0,,/static/object_pics/picture_clothe/high heels.jpg,7000.0,inanimate,photo,1142.1426375480535,False,,MEM,MEM_0080,2022-12-08 23:20:02
,visual-trial,65,384287,0.0-65.0,,,,,998.0,,,arrowleft,animate (left arrow)&emsp;&emsp;&emsp;&emsp;inanimate (right arrow),semantic,3000.0,,/static/object_pics/drawing_veggie/pumpkin.jpg,7000.0,inanimate,drawing,638.2891626307647,False,,MEM,MEM_0080,2022-12-08 23:20:02
,visual-trial,66,389259,0.0-66.0,,,,,850.0,,,arrowleft,animate (left arrow)&emsp;&emsp;&emsp;&emsp;inanimate (right arrow),semantic,3000.0,,/static/object_pics/drawing_veggie/onions.jpg,7000.0,inanimate,drawing,1110.9557279310502,False,,MEM,MEM_0080,2022-12-08 23:20:02
,visual-trial,67,394509,0.0-67.0,,,,,1075.0,,,arrowleft,photo (left arrow)&emsp;&emsp;&emsp;&emsp;drawing (right arrow),perceptual,3000.0,,/static/object_pics/picture_insect/worm.jpg,7000.0,animate,photo,1158.508311762806,True,,MEM,MEM_0080,2022-12-08 23:20:02
,visual-trial,68,399592,0.0-68.0,,,,,1008.0,,,arrowleft,photo (left arrow)&emsp;&emsp;&emsp;&emsp;drawing (right arrow),perceptual,3000.0,,/static/object_pics/picture_clothe/gloves.jpg,7000.0,inanimate,photo,1057.6587590353142,True,,MEM,MEM_0080,2022-12-08 23:20:02
,visual-trial,69,404385,0.0-69.0,,,,,1032.0,,,arrowleft,animate (left arrow)&emsp;&emsp;&emsp;&emsp;inanimate (right arrow),semantic,3000.0,,/static/object_pics/drawing_bird/pelican.jpg,7000.0,animate,drawing,742.2865742425158,True,,MEM,MEM_0080,2022-12-08 23:20:02
,visual-trial,70,408973,0.0-70.0,,,,,775.0,,,arrowleft,photo (left arrow)&emsp;&emsp;&emsp;&emsp;drawing (right arrow),perceptual,3000.0,,/static/object_pics/picture_mammal/horse.jpg,7000.0,animate,photo,782.2374070604699,True,,MEM,MEM_0080,2022-12-08 23:20:02
,visual-trial,71,414416,0.0-71.0,,,,,1135.0,,,arrowright,photo (left arrow)&emsp;&emsp;&emsp;&emsp;drawing (right arrow),perceptual,3000.0,,/static/object_pics/drawing_fruit/pear.jpg,7000.0,inanimate,drawing,1273.3847276309682,True,,MEM,MEM_0080,2022-12-08 23:20:02
,visual-trial,72,419667,0.0-72.0,,,,,1123.0,,,arrowleft,animate (left arrow)&emsp;&emsp;&emsp;&emsp;inanimate (right arrow),semantic,3000.0,,/static/object_pics/drawing_sea/shrimp.jpg,7000.0,animate,drawing,1117.3849486925137,True,,MEM,MEM_0080,2022-12-08 23:20:02
,visual-trial,73,424601,0.0-73.0,,,,,969.0,,,arrowleft,photo (left arrow)&emsp;&emsp;&emsp;&emsp;drawing (right arrow),perceptual,3000.0,,/static/object_pics/picture_clothe/hoodie.jpg,7000.0,inanimate,photo,950.6467770220406,True,,MEM,MEM_0080,2022-12-08 23:20:02
,visual-trial,74,429404,0.0-74.0,,,,,1227.0,,,arrowright,photo (left arrow)&emsp;&emsp;&emsp;&emsp;drawing (right arrow),perceptual,3000.0,,/static/object_pics/drawing_veggie/potato.jpg,7000.0,inanimate,drawing,559.9950412484241,True,,MEM,MEM_0080,2022-12-08 23:20:02
,html-keyboard-response,75,436530,0.0-75.0,,,,,7124.0,"
        <p>In that last set of trials, you were correct 72% of the time.</p>
        <p>Feel free to take a brief break. In the next set of trials, you will continue with the same task.
        The instructions are displayed below, in case you need a refresher.
        Press the space bar when you are ready to continue.</p>
        <p>In this task, you will see a series of objects. On some trials, your job is to determine
        whether the object shown is a color photograph or a line drawing. On other trials, your job
        is to determine whether the object represented is animate or inanimate.

        <br><br>
        You will know which response to make depending on the initial display, which will say
        ""animate / inanimate"" or ""photo / drawing"".
        <br>
        You will be able to use the left arrow key to report animate/photo and the right arrow key to report inanimate/drawing.
        <br>
        Please respond as quickly as possible, and use your dominant hand to make your responses.
        <br><br>
        You will be able to use the left arrow key to report animate/photo and the right arrow key to report inanimate/drawing.
        <br><br>
        <img src=""/static/instructions_pics/visual_pic.png"" height=""300px"">
        <br>
        In the example in the top row, the correct response is animate (left arrow key). In the example in the bottom row, the correct response is photo (left arrow key).
        <br>
        <br>When you are ready to begin, press the space bar.</p>", ,,,,,,,,,,,,,MEM,MEM_0080,2022-12-08 23:20:02
,visual-trial,76,441244,0.0-76.0,,,,,850.0,,,arrowleft,photo (left arrow)&emsp;&emsp;&emsp;&emsp;drawing (right arrow),perceptual,3000.0,,/static/object_pics/picture_mammal/squirrel.jpg,7000.0,animate,photo,849.8634274999108,True,,MEM,MEM_0080,2022-12-08 23:20:02
,visual-trial,77,446551,0.0-77.0,,,,,806.0,,,arrowleft,animate (left arrow)&emsp;&emsp;&emsp;&emsp;inanimate (right arrow),semantic,3000.0,,/static/object_pics/drawing_veggie/beetroot.jpg,7000.0,inanimate,drawing,1484.7286543162402,False,,MEM,MEM_0080,2022-12-08 23:20:02
,visual-trial,78,451931,0.0-78.0,,,,,907.0,,,arrowright,photo (left arrow)&emsp;&emsp;&emsp;&emsp;drawing (right arrow),perceptual,3000.0,,/static/object_pics/drawing_bird/hummingbird.jpg,7000.0,animate,drawing,1459.2157975002015,True,,MEM,MEM_0080,2022-12-08 23:20:02
,visual-trial,79,457622,0.0-79.0,,,,,1366.0,,,arrowright,animate (left arrow)&emsp;&emsp;&emsp;&emsp;inanimate (right arrow),semantic,3000.0,,/static/object_pics/drawing_bird/turkey.jpg,7000.0,animate,drawing,1300.8824310357065,False,,MEM,MEM_0080,2022-12-08 23:20:02
,visual-trial,80,462708,0.0-80.0,,,,,836.0,,,arrowright,animate (left arrow)&emsp;&emsp;&emsp;&emsp;inanimate (right arrow),semantic,3000.0,,/static/object_pics/drawing_veggie/garlic.jpg,7000.0,inanimate,drawing,1235.5998181043497,True,,MEM,MEM_0080,2022-12-08 23:20:02
,visual-trial,81,467752,0.0-81.0,,,,,720.0,,,arrowright,photo (left arrow)&emsp;&emsp;&emsp;&emsp;drawing (right arrow),perceptual,3000.0,,/static/object_pics/drawing_bird/toucan.jpg,7000.0,animate,drawing,1313.848808900227,True,,MEM,MEM_0080,2022-12-08 23:20:02
,visual-trial,82,473541,0.0-82.0,,,,,1286.0,,,arrowleft,animate (left arrow)&emsp;&emsp;&emsp;&emsp;inanimate (right arrow),semantic,3000.0,,/static/object_pics/picture_mammal/gorilla.jpg,7000.0,animate,photo,1482.1805467222,True,,MEM,MEM_0080,2022-12-08 23:20:02
,visual-trial,83,478675,0.0-83.0,,,,,682.0,,,arrowright,photo (left arrow)&emsp;&emsp;&emsp;&emsp;drawing (right arrow),perceptual,3000.0,,/static/object_pics/drawing_veggie/cucumber.jpg,7000.0,inanimate,drawing,1440.4322932977352,True,,MEM,MEM_0080,2022-12-08 23:20:02
,visual-trial,84,483134,0.0-84.0,,,,,702.0,,,arrowleft,animate (left arrow)&emsp;&emsp;&emsp;&emsp;inanimate (right arrow),semantic,3000.0,,/static/object_pics/picture_mammal/wolf.jpg,7000.0,animate,photo,742.2803890478283,True,,MEM,MEM_0080,2022-12-08 23:20:02
,visual-trial,85,487899,0.0-85.0,,,,,995.0,,,arrowleft,animate (left arrow)&emsp;&emsp;&emsp;&emsp;inanimate (right arrow),semantic,3000.0,,/static/object_pics/picture_electronic/camera.jpg,7000.0,inanimate,photo,756.3909959945765,False,,MEM,MEM_0080,2022-12-08 23:20:02
,visual-trial,86,493242,0.0-86.0,,,,,834.0,,,arrowleft,photo (left arrow)&emsp;&emsp;&emsp;&emsp;drawing (right arrow),perceptual,3000.0,,/static/object_pics/picture_mammal/elephant.jpg,7000.0,animate,photo,1498.4256626270117,True,,MEM,MEM_0080,2022-12-08 23:20:02
,visual-trial,87,498147,0.0-87.0,,,,,803.0,,,arrowright,animate (left arrow)&emsp;&emsp;&emsp;&emsp;inanimate (right arrow),semantic,3000.0,,/static/object_pics/drawing_bird/owl.jpg,7000.0,animate,drawing,1077.456376483421,False,,MEM,MEM_0080,2022-12-08 23:20:02
,visual-trial,88,502818,0.0-88.0,,,,,738.0,,,arrowright,animate (left arrow)&emsp;&emsp;&emsp;&emsp;inanimate (right arrow),semantic,3000.0,,/static/object_pics/drawing_bird/pigeon.jpg,7000.0,animate,drawing,921.3790928830243,False,,MEM,MEM_0080,2022-12-08 23:20:02
,visual-trial,89,507748,0.0-89.0,,,,,692.0,,,arrowright,photo (left arrow)&emsp;&emsp;&emsp;&emsp;drawing (right arrow),perceptual,3000.0,,/static/object_pics/drawing_fruit/strawberry.jpg,7000.0,inanimate,drawing,1223.7328595026383,True,,MEM,MEM_0080,2022-12-08 23:20:02
,visual-trial,90,512897,0.0-90.0,,,,,729.0,,,arrowright,photo (left arrow)&emsp;&emsp;&emsp;&emsp;drawing (right arrow),perceptual,3000.0,,/static/object_pics/drawing_bird/vulture.jpg,7000.0,animate,drawing,1411.7256682361415,True,,MEM,MEM_0080,2022-12-08 23:20:02
,visual-trial,91,518076,0.0-91.0,,,,,852.0,,,arrowleft,photo (left arrow)&emsp;&emsp;&emsp;&emsp;drawing (right arrow),perceptual,3000.0,,/static/object_pics/picture_mammal/camel.jpg,7000.0,animate,photo,1314.24623742724,True,,MEM,MEM_0080,2022-12-08 23:20:02
,visual-trial,92,523249,0.0-92.0,,,,,850.0,,,arrowright,animate (left arrow)&emsp;&emsp;&emsp;&emsp;inanimate (right arrow),semantic,3000.0,,/static/object_pics/drawing_sea/pufferfish.jpg,7000.0,animate,drawing,1302.9859012545737,False,,MEM,MEM_0080,2022-12-08 23:20:02
,visual-trial,93,527942,0.0-93.0,,,,,990.0,,,arrowleft,animate (left arrow)&emsp;&emsp;&emsp;&emsp;inanimate (right arrow),semantic,3000.0,,/static/object_pics/picture_clothe/dress.jpg,7000.0,inanimate,photo,688.4689544631643,False,,MEM,MEM_0080,2022-12-08 23:20:02
,visual-trial,94,533145,0.0-94.0,,,,,1392.0,,,arrowright,photo (left arrow)&emsp;&emsp;&emsp;&emsp;drawing (right arrow),perceptual,3000.0,,/static/object_pics/drawing_veggie/corn.jpg,7000.0,inanimate,drawing,794.4626467331233,True,,MEM,MEM_0080,2022-12-08 23:20:02
,visual-trial,95,538756,0.0-95.0,,,,,2067.0,,,arrowright,animate (left arrow)&emsp;&emsp;&emsp;&emsp;inanimate (right arrow),semantic,3000.0,,/static/object_pics/drawing_fruit/pineapple.jpg,7000.0,inanimate,drawing,533.098393657329,True,,MEM,MEM_0080,2022-12-08 23:20:02
,visual-trial,96,544370,0.0-96.0,,,,,1169.0,,,arrowleft,animate (left arrow)&emsp;&emsp;&emsp;&emsp;inanimate (right arrow),semantic,3000.0,,/static/object_pics/picture_insect/snail.jpg,7000.0,animate,photo,1425.100050771557,True,,MEM,MEM_0080,2022-12-08 23:20:02
,visual-trial,97,550173,0.0-97.0,,,,,1429.0,,,arrowright,photo (left arrow)&emsp;&emsp;&emsp;&emsp;drawing (right arrow),perceptual,3000.0,,/static/object_pics/drawing_veggie/aubergine.jpg,7000.0,inanimate,drawing,1361.0202338347337,True,,MEM,MEM_0080,2022-12-08 23:20:02
,visual-trial,98,554900,0.0-98.0,,,,,819.0,,,arrowleft,photo (left arrow)&emsp;&emsp;&emsp;&emsp;drawing (right arrow),perceptual,3000.0,,/static/object_pics/picture_mammal/kangaroo.jpg,7000.0,animate,photo,890.4054552714191,True,,MEM,MEM_0080,2022-12-08 23:20:02
,visual-trial,99,559693,0.0-99.0,,,,,740.0,,,arrowleft,animate (left arrow)&emsp;&emsp;&emsp;&emsp;inanimate (right arrow),semantic,3000.0,,/static/object_pics/picture_electronic/gamepad.jpg,7000.0,inanimate,photo,1042.8422938232943,False,,MEM,MEM_0080,2022-12-08 23:20:02
,visual-trial,100,564244,0.0-100.0,,,,,741.0,,,arrowleft,animate (left arrow)&emsp;&emsp;&emsp;&emsp;inanimate (right arrow),semantic,3000.0,,/static/object_pics/picture_insect/ant.jpg,7000.0,animate,photo,780.3130963671321,True,,MEM,MEM_0080,2022-12-08 23:20:02
,visual-trial,101,569267,0.0-101.0,,,,,1346.0,,,arrowright,animate (left arrow)&emsp;&emsp;&emsp;&emsp;inanimate (right arrow),semantic,3000.0,,/static/object_pics/drawing_sea/jellyfish.jpg,7000.0,animate,drawing,664.3003109981893,False,,MEM,MEM_0080,2022-12-08 23:20:02
,visual-trial,102,573878,0.0-102.0,,,,,774.0,,,arrowleft,animate (left arrow)&emsp;&emsp;&emsp;&emsp;inanimate (right arrow),semantic,3000.0,,/static/object_pics/drawing_sea/killer whale.jpg,7000.0,animate,drawing,826.5083126520238,True,,MEM,MEM_0080,2022-12-08 23:20:02
,visual-trial,103,578589,0.0-103.0,,,,,766.0,,,arrowright,animate (left arrow)&emsp;&emsp;&emsp;&emsp;inanimate (right arrow),semantic,3000.0,,/static/object_pics/drawing_bird/peacock.jpg,7000.0,animate,drawing,926.3775445264262,False,,MEM,MEM_0080,2022-12-08 23:20:02
,visual-trial,104,583659,0.0-104.0,,,,,963.0,,,arrowright,photo (left arrow)&emsp;&emsp;&emsp;&emsp;drawing (right arrow),perceptual,3000.0,,/static/object_pics/drawing_sea/swordfish.jpg,7000.0,animate,drawing,1091.3223818968181,True,,MEM,MEM_0080,2022-12-08 23:20:02
,visual-trial,105,589081,0.0-105.0,,,,,1240.0,,,arrowright,animate (left arrow)&emsp;&emsp;&emsp;&emsp;inanimate (right arrow),semantic,3000.0,,/static/object_pics/drawing_sea/seahorse.jpg,7000.0,animate,drawing,1164.9835484492062,False,,MEM,MEM_0080,2022-12-08 23:20:02
,visual-trial,106,594291,0.0-106.0,,,,,741.0,,,arrowleft,photo (left arrow)&emsp;&emsp;&emsp;&emsp;drawing (right arrow),perceptual,3000.0,,/static/object_pics/picture_mammal/rhinoceros.jpg,7000.0,animate,photo,1442.9360387019083,True,,MEM,MEM_0080,2022-12-08 23:20:02
,visual-trial,107,598953,0.0-107.0,,,,,1048.0,,,arrowleft,animate (left arrow)&emsp;&emsp;&emsp;&emsp;inanimate (right arrow),semantic,3000.0,,/static/object_pics/picture_insect/mosquito.jpg,7000.0,animate,photo,592.7527308932965,True,,MEM,MEM_0080,2022-12-08 23:20:02
,html-keyboard-response,108,604057,0.0-108.0,,,,,5103.0,"
        <p>In that last set of trials, you were correct 66% of the time.</p>
        <p>Feel free to take a brief break. In the next set of trials, you will continue with the same task.
        The instructions are displayed below, in case you need a refresher.
        Press the space bar when you are ready to continue.</p>
        <p>In this task, you will see a series of objects. On some trials, your job is to determine
        whether the object shown is a color photograph or a line drawing. On other trials, your job
        is to determine whether the object represented is animate or inanimate.

        <br><br>
        You will know which response to make depending on the initial display, which will say
        ""animate / inanimate"" or ""photo / drawing"".
        <br>
        You will be able to use the left arrow key to report animate/photo and the right arrow key to report inanimate/drawing.
        <br>
        Please respond as quickly as possible, and use your dominant hand to make your responses.
        <br><br>
        You will be able to use the left arrow key to report animate/photo and the right arrow key to report inanimate/drawing.
        <br><br>
        <img src=""/static/instructions_pics/visual_pic.png"" height=""300px"">
        <br>
        In the example in the top row, the correct response is animate (left arrow key). In the example in the bottom row, the correct response is photo (left arrow key).
        <br>
        <br>When you are ready to begin, press the space bar.</p>", ,,,,,,,,,,,,,MEM,MEM_0080,2022-12-08 23:20:02
,visual-trial,109,609123,0.0-109.0,,,,,683.0,,,arrowleft,animate (left arrow)&emsp;&emsp;&emsp;&emsp;inanimate (right arrow),semantic,3000.0,,/static/object_pics/picture_electronic/satellite dish.jpg,7000.0,inanimate,photo,1342.7262536251733,False,,MEM,MEM_0080,2022-12-08 23:20:02
,visual-trial,110,614117,0.0-110.0,,,,,716.0,,,arrowright,photo (left arrow)&emsp;&emsp;&emsp;&emsp;drawing (right arrow),perceptual,3000.0,,/static/object_pics/drawing_bird/canary.jpg,7000.0,animate,drawing,1264.3570917112243,True,,MEM,MEM_0080,2022-12-08 23:20:02
,visual-trial,111,618927,0.0-111.0,,,,,839.0,,,arrowleft,animate (left arrow)&emsp;&emsp;&emsp;&emsp;inanimate (right arrow),semantic,3000.0,,/static/object_pics/picture_insect/dragonfly.jpg,7000.0,animate,photo,955.3028795029419,True,,MEM,MEM_0080,2022-12-08 23:20:02
,visual-trial,112,624604,0.0-112.0,,,,,1301.0,,,arrowright,animate (left arrow)&emsp;&emsp;&emsp;&emsp;inanimate (right arrow),semantic,3000.0,,/static/object_pics/picture_clothe/belt.jpg,7000.0,inanimate,photo,1361.7854620096182,True,,MEM,MEM_0080,2022-12-08 23:20:02
,visual-trial,113,630117,0.0-113.0,,,,,1325.0,,,arrowright,animate (left arrow)&emsp;&emsp;&emsp;&emsp;inanimate (right arrow),semantic,3000.0,,/static/object_pics/picture_electronic/computer mouse.jpg,7000.0,inanimate,photo,1173.6394187331891,True,,MEM,MEM_0080,2022-12-08 23:20:02
,visual-trial,114,635614,0.0-114.0,,,,,1246.0,,,arrowleft,photo (left arrow)&emsp;&emsp;&emsp;&emsp;drawing (right arrow),perceptual,3000.0,,/static/object_pics/picture_insect/scorpion.jpg,7000.0,animate,photo,1239.325738355668,True,,MEM,MEM_0080,2022-12-08 23:20:02
,visual-trial,115,641144,0.0-115.0,,,,,1254.0,,,arrowleft,photo (left arrow)&emsp;&emsp;&emsp;&emsp;drawing (right arrow),perceptual,3000.0,,/static/object_pics/picture_electronic/radio02.jpg,7000.0,inanimate,photo,1259.6776277312251,True,,MEM,MEM_0080,2022-12-08 23:20:02
,visual-trial,116,646503,0.0-116.0,,,,,1295.0,,,arrowleft,photo (left arrow)&emsp;&emsp;&emsp;&emsp;drawing (right arrow),perceptual,3000.0,,/static/object_pics/picture_insect/mantis.jpg,7000.0,animate,photo,1052.9274878550755,True,,MEM,MEM_0080,2022-12-08 23:20:02
,visual-trial,117,651906,0.0-117.0,,,,,889.0,,,arrowleft,animate (left arrow)&emsp;&emsp;&emsp;&emsp;inanimate (right arrow),semantic,3000.0,,/static/object_pics/picture_mammal/giraffe.jpg,7000.0,animate,photo,1496.318541918306,True,,MEM,MEM_0080,2022-12-08 23:20:02
,visual-trial,118,656336,0.0-118.0,,,,,689.0,,,arrowleft,photo (left arrow)&emsp;&emsp;&emsp;&emsp;drawing (right arrow),perceptual,3000.0,,/static/object_pics/picture_electronic/handmixer.jpg,7000.0,inanimate,photo,717.7560651852662,True,,MEM,MEM_0080,2022-12-08 23:20:02
,visual-trial,119,662721,0.0-119.0,,,,,2042.0,,,arrowright,photo (left arrow)&emsp;&emsp;&emsp;&emsp;drawing (right arrow),perceptual,3000.0,,/static/object_pics/picture_mammal/lion.jpg,7000.0,animate,photo,1339.138879618627,False,,MEM,MEM_0080,2022-12-08 23:20:02
,visual-trial,120,669735,0.0-120.0,,,,,2529.0,,,arrowleft,animate (left arrow)&emsp;&emsp;&emsp;&emsp;inanimate (right arrow),semantic,3000.0,,/static/object_pics/drawing_fruit/orange.jpg,7000.0,inanimate,drawing,1462.1640552049946,False,,MEM,MEM_0080,2022-12-08 23:20:02
,visual-trial,121,674537,0.0-121.0,,,,,1257.0,,,arrowright,animate (left arrow)&emsp;&emsp;&emsp;&emsp;inanimate (right arrow),semantic,3000.0,,/static/object_pics/picture_electronic/coffee maker.jpg,7000.0,inanimate,photo,528.7116951514728,True,,MEM,MEM_0080,2022-12-08 23:20:02
,visual-trial,122,679902,0.0-122.0,,,,,1471.0,,,arrowleft,animate (left arrow)&emsp;&emsp;&emsp;&emsp;inanimate (right arrow),semantic,3000.0,,/static/object_pics/picture_insect/fly.jpg,7000.0,animate,photo,883.1660240513752,True,,MEM,MEM_0080,2022-12-08 23:20:02
,visual-trial,123,685179,0.0-123.0,,,,,1719.0,,,arrowright,animate (left arrow)&emsp;&emsp;&emsp;&emsp;inanimate (right arrow),semantic,3000.0,,/static/object_pics/drawing_sea/octopus.jpg,7000.0,animate,drawing,530.2716954345005,False,,MEM,MEM_0080,2022-12-08 23:20:02
,visual-trial,124,690005,0.0-124.0,,,,,862.0,,,arrowright,photo (left arrow)&emsp;&emsp;&emsp;&emsp;drawing (right arrow),perceptual,3000.0,,/static/object_pics/drawing_fruit/pomegranate.jpg,7000.0,inanimate,drawing,952.2934064179587,True,,MEM,MEM_0080,2022-12-08 23:20:02
,visual-trial,125,695753,0.0-125.0,,,,,1439.0,,,arrowleft,animate (left arrow)&emsp;&emsp;&emsp;&emsp;inanimate (right arrow),semantic,3000.0,,/static/object_pics/drawing_bird/ostrich.jpg,7000.0,animate,drawing,1291.2825042861136,True,,MEM,MEM_0080,2022-12-08 23:20:02
,visual-trial,126,700579,0.0-126.0,,,,,1161.0,,,arrowleft,photo (left arrow)&emsp;&emsp;&emsp;&emsp;drawing (right arrow),perceptual,3000.0,,/static/object_pics/picture_clothe/sport t-shirt.jpg,7000.0,inanimate,photo,635.3666316713527,True,,MEM,MEM_0080,2022-12-08 23:20:02
,visual-trial,127,707088,0.0-127.0,,,,,2587.0,,,arrowleft,animate (left arrow)&emsp;&emsp;&emsp;&emsp;inanimate (right arrow),semantic,3000.0,,/static/object_pics/drawing_sea/shark.jpg,7000.0,animate,drawing,904.8418475247022,True,,MEM,MEM_0080,2022-12-08 23:20:02
,visual-trial,128,712776,0.0-128.0,,,,,1308.0,,,arrowright,photo (left arrow)&emsp;&emsp;&emsp;&emsp;drawing (right arrow),perceptual,3000.0,,/static/object_pics/drawing_veggie/artichoke.jpg,7000.0,inanimate,drawing,1355.0483732843015,True,,MEM,MEM_0080,2022-12-08 23:20:02
,visual-trial,129,718798,0.0-129.0,,,,,2468.0,,,arrowright,animate (left arrow)&emsp;&emsp;&emsp;&emsp;inanimate (right arrow),semantic,3000.0,,/static/object_pics/drawing_bird/hen.jpg,7000.0,animate,drawing,510.40849086299846,False,,MEM,MEM_0080,2022-12-08 23:20:02
,visual-trial,130,723816,0.0-130.0,,,,,1336.0,,,arrowright,animate (left arrow)&emsp;&emsp;&emsp;&emsp;inanimate (right arrow),semantic,3000.0,,/static/object_pics/picture_electronic/toaster.jpg,7000.0,inanimate,photo,667.9247555787491,True,,MEM,MEM_0080,2022-12-08 23:20:02
,visual-trial,131,730194,0.0-131.0,,,,,1873.0,,,arrowleft,animate (left arrow)&emsp;&emsp;&emsp;&emsp;inanimate (right arrow),semantic,3000.0,,/static/object_pics/drawing_fruit/banana.jpg,7000.0,inanimate,drawing,1489.3988171208225,False,,MEM,MEM_0080,2022-12-08 23:20:02
,visual-trial,132,735512,0.0-132.0,,,,,976.0,,,arrowright,photo (left arrow)&emsp;&emsp;&emsp;&emsp;drawing (right arrow),perceptual,3000.0,,/static/object_pics/drawing_fruit/cherry.jpg,7000.0,inanimate,drawing,1328.3453005028296,True,,MEM,MEM_0080,2022-12-08 23:20:02
,visual-trial,133,740359,0.0-133.0,,,,,742.0,,,arrowleft,photo (left arrow)&emsp;&emsp;&emsp;&emsp;drawing (right arrow),perceptual,3000.0,,/static/object_pics/picture_insect/butterfly.jpg,7000.0,animate,photo,1087.1882136392392,True,,MEM,MEM_0080,2022-12-08 23:20:02
,visual-trial,134,745549,0.0-134.0,,,,,1069.0,,,arrowright,photo (left arrow)&emsp;&emsp;&emsp;&emsp;drawing (right arrow),perceptual,3000.0,,/static/object_pics/drawing_veggie/tomato.jpg,7000.0,inanimate,drawing,1108.2507194550412,True,,MEM,MEM_0080,2022-12-08 23:20:02
,visual-trial,135,751583,0.0-135.0,,,,,1767.0,,,arrowleft,animate (left arrow)&emsp;&emsp;&emsp;&emsp;inanimate (right arrow),semantic,3000.0,,/static/object_pics/drawing_fruit/watermelon.jpg,7000.0,inanimate,drawing,1251.4298920179208,False,,MEM,MEM_0080,2022-12-08 23:20:02
,visual-trial,136,756249,0.0-136.0,,,,,649.0,,,arrowright,photo (left arrow)&emsp;&emsp;&emsp;&emsp;drawing (right arrow),perceptual,3000.0,,/static/object_pics/drawing_fruit/apple.jpg,7000.0,inanimate,drawing,999.0257193202269,True,,MEM,MEM_0080,2022-12-08 23:20:02
,visual-trial,137,761402,0.0-137.0,,,,,1009.0,,,arrowleft,photo (left arrow)&emsp;&emsp;&emsp;&emsp;drawing (right arrow),perceptual,3000.0,,/static/object_pics/picture_clothe/tie.jpg,7000.0,inanimate,photo,1131.20562690589,True,,MEM,MEM_0080,2022-12-08 23:20:02
,visual-trial,138,766385,0.0-138.0,,,,,889.0,,,arrowleft,animate (left arrow)&emsp;&emsp;&emsp;&emsp;inanimate (right arrow),semantic,3000.0,,/static/object_pics/picture_mammal/antelope.jpg,7000.0,animate,photo,1084.1763862584958,True,,MEM,MEM_0080,2022-12-08 23:20:02
,visual-trial,139,772332,0.0-139.0,,,,,2134.0,,,arrowleft,animate (left arrow)&emsp;&emsp;&emsp;&emsp;inanimate (right arrow),semantic,3000.0,,/static/object_pics/drawing_veggie/asparagus.jpg,7000.0,inanimate,drawing,774.1709287114311,False,,MEM,MEM_0080,2022-12-08 23:20:02
,visual-trial,140,777757,0.0-140.0,,,,,1036.0,,,arrowleft,animate (left arrow)&emsp;&emsp;&emsp;&emsp;inanimate (right arrow),semantic,3000.0,,/static/object_pics/drawing_fruit/melon.jpg,7000.0,inanimate,drawing,1372.1408904390014,False,,MEM,MEM_0080,2022-12-08 23:20:02
,html-keyboard-response,141,785463,0.0-141.0,,,,,7705.0,"
      <p>Thank you for your participation!</p>
      The goal of this study is to replicate previous findings that the timing of responses in memory-dependent tasks
      is rhythmic in nature (compared to the timing of responses in memory-independent tasks).
      You performed the memory-independent tasks in this study.
      <br>
      Your participation will allow us to better understand how memory works.
      Please do not share this information with other potential participants.
      <br>
      Press the space bar to continue.</p>", ,,,,,,,,,,,,,MEM,MEM_0080,2022-12-08 23:20:02
