success,trial_type,trial_index,time_elapsed,internal_node_id,timeout,failed_images,failed_audio,failed_video,rt,stimulus,response,instruction,instruction_class,instruction_duration,prompt,object,object_duration,animacy,style,jitter,accurate,key,question_order,exp,subjectId,date
True,fullscreen,0,4379,0.0-0.0,,,,,,,,,,,,,,,,,,,,MEM,MEM_0071,2022-12-08 22:19:04
True,preload,1,18707,0.0-1.0,False,[],[],[],,,,,,,,,,,,,,,,MEM,MEM_0071,2022-12-08 22:19:04
,html-keyboard-response,2,70534,0.0-2.0,,,,,51822.0,"
      <p>In this task, you will see a series of objects. On some trials, your job is to determine
      whether the object shown is a color photograph or a line drawing. On other trials, your job
      is to determine whether the object represented is animate or inanimate.

      <br><br>
      You will know which response to make depending on the initial display, which will say
      ""animate / inanimate"" or ""photo / drawing"".
      <br>
      <br>
      You will be able to use the left arrow key to report animate/photo and the right arrow key to report inanimate/drawing.
      <br>
      Please respond as quickly as possible, and use your dominant hand to make your responses.
      <br><br>
      <img src=""/static/instructions_pics/visual_pic.png"" height=""300px"">
      <br>
      In the example in the top row, the correct response is animate (left arrow key). In the example in the bottom row, the correct response is photo (left arrow key).
      <br>
      <br>You will first do some practice trials. When you are ready to begin, press the space bar.</p>", ,,,,,,,,,,,,,MEM,MEM_0071,2022-12-08 22:19:04
,visual-trial,3,81302,0.0-3.0,,,,,,,,animate (left arrow)&emsp;&emsp;&emsp;&emsp;inanimate (right arrow),semantic,3000.0,,/static/for_instructions/object_pics/drawing_bird/heron.jpg,7000.0,animate,drawing,735.6339123249613,False,,,MEM,MEM_0071,2022-12-08 22:19:04
,visual-trial,4,89905,0.0-4.0,,,,,4209.0,,,photo (left arrow)&emsp;&emsp;&emsp;&emsp;drawing (right arrow),perceptual,3000.0,,/static/for_instructions/object_pics/picture_electronic/flashlight.jpg,7000.0,inanimate,photo,1377.0453906890796,True,arrowleft,,MEM,MEM_0071,2022-12-08 22:19:04
,visual-trial,5,94742,0.0-5.0,,,,,585.0,,,animate (left arrow)&emsp;&emsp;&emsp;&emsp;inanimate (right arrow),semantic,3000.0,,/static/for_instructions/object_pics/drawing_clothe/hockey helmet.jpg,7000.0,inanimate,drawing,1237.0092125934661,True,arrowright,,MEM,MEM_0071,2022-12-08 22:19:04
,visual-trial,6,99786,0.0-6.0,,,,,1108.0,,,photo (left arrow)&emsp;&emsp;&emsp;&emsp;drawing (right arrow),perceptual,3000.0,,/static/for_instructions/object_pics/picture_veggie/avocado.jpg,7000.0,inanimate,photo,912.493253919247,True,arrowleft,,MEM,MEM_0071,2022-12-08 22:19:04
,survey-multi-choice,7,117730,0.0-7.0-0.0,,,,,17941.0,,"{'Style': 'True', 'Animacy': 'True'}",,,,,,,,,,,,"[0, 1]",MEM,MEM_0071,2022-12-08 22:19:04
,html-keyboard-response,8,122398,0.0-8.0,,,,,4658.0,"
      <p>Great job! Now you'll continue onto doing the main task.
      You will have the opportunity to take brief breaks at various points.
      Good luck!<br>Press the space bar to continue.</p>", ,,,,,,,,,,,,,MEM,MEM_0071,2022-12-08 22:19:04
True,fullscreen,9,129845,0.0-9.0,,,,,,,,,,,,,,,,,,,,MEM,MEM_0071,2022-12-08 22:19:04
,visual-trial,10,136135,0.0-10.0,,,,,2138.0,,,animate (left arrow)&emsp;&emsp;&emsp;&emsp;inanimate (right arrow),semantic,3000.0,,/static/object_pics/picture_mammal/horse.jpg,7000.0,animate,photo,1133.7456065389713,False,arrowright,,MEM,MEM_0071,2022-12-08 22:19:04
,visual-trial,11,140735,0.0-11.0,,,,,891.0,,,photo (left arrow)&emsp;&emsp;&emsp;&emsp;drawing (right arrow),perceptual,3000.0,,/static/object_pics/picture_electronic/camera.jpg,7000.0,inanimate,photo,696.7579098324175,True,arrowleft,,MEM,MEM_0071,2022-12-08 22:19:04
,visual-trial,12,145879,0.0-12.0,,,,,963.0,,,photo (left arrow)&emsp;&emsp;&emsp;&emsp;drawing (right arrow),perceptual,3000.0,,/static/object_pics/drawing_fruit/pear.jpg,7000.0,inanimate,drawing,1158.3040025530759,True,arrowright,,MEM,MEM_0071,2022-12-08 22:19:04
,visual-trial,13,150743,0.0-13.0,,,,,1017.0,,,photo (left arrow)&emsp;&emsp;&emsp;&emsp;drawing (right arrow),perceptual,3000.0,,/static/object_pics/picture_mammal/bison.jpg,7000.0,animate,photo,829.0226230796758,True,arrowleft,,MEM,MEM_0071,2022-12-08 22:19:04
,visual-trial,14,155962,0.0-14.0,,,,,752.0,,,photo (left arrow)&emsp;&emsp;&emsp;&emsp;drawing (right arrow),perceptual,3000.0,,/static/object_pics/picture_veggie/tomato.jpg,7000.0,inanimate,photo,1443.4043230699253,True,arrowleft,,MEM,MEM_0071,2022-12-08 22:19:04
,visual-trial,15,160951,0.0-15.0,,,,,745.0,,,photo (left arrow)&emsp;&emsp;&emsp;&emsp;drawing (right arrow),perceptual,3000.0,,/static/object_pics/picture_electronic/phone.jpg,7000.0,inanimate,photo,1224.9343526441362,True,arrowleft,,MEM,MEM_0071,2022-12-08 22:19:04
,visual-trial,16,165507,0.0-16.0,,,,,1000.0,,,photo (left arrow)&emsp;&emsp;&emsp;&emsp;drawing (right arrow),perceptual,3000.0,,/static/object_pics/picture_veggie/aubergine.jpg,7000.0,inanimate,photo,534.4094339972436,True,arrowleft,,MEM,MEM_0071,2022-12-08 22:19:04
,visual-trial,17,170571,0.0-17.0,,,,,1153.0,,,animate (left arrow)&emsp;&emsp;&emsp;&emsp;inanimate (right arrow),semantic,3000.0,,/static/object_pics/drawing_clothe/hoodie.jpg,7000.0,inanimate,drawing,892.0072116899271,True,arrowright,,MEM,MEM_0071,2022-12-08 22:19:04
,visual-trial,18,176766,0.0-18.0,,,,,2569.0,,,animate (left arrow)&emsp;&emsp;&emsp;&emsp;inanimate (right arrow),semantic,3000.0,,/static/object_pics/drawing_fruit/pomegranate.jpg,7000.0,inanimate,drawing,599.570925305383,False,arrowleft,,MEM,MEM_0071,2022-12-08 22:19:04
,visual-trial,19,181649,0.0-19.0,,,,,731.0,,,animate (left arrow)&emsp;&emsp;&emsp;&emsp;inanimate (right arrow),semantic,3000.0,,/static/object_pics/drawing_insect/butterfly.jpg,7000.0,animate,drawing,1136.5253775520785,True,arrowleft,,MEM,MEM_0071,2022-12-08 22:19:04
,visual-trial,20,186386,0.0-20.0,,,,,853.0,,,photo (left arrow)&emsp;&emsp;&emsp;&emsp;drawing (right arrow),perceptual,3000.0,,/static/object_pics/picture_electronic/radio02.jpg,7000.0,inanimate,photo,869.0246222360076,True,arrowleft,,MEM,MEM_0071,2022-12-08 22:19:04
,visual-trial,21,191665,0.0-21.0,,,,,823.0,,,photo (left arrow)&emsp;&emsp;&emsp;&emsp;drawing (right arrow),perceptual,3000.0,,/static/object_pics/picture_electronic/microphone.jpg,7000.0,inanimate,photo,1441.4309326290763,True,arrowleft,,MEM,MEM_0071,2022-12-08 22:19:04
,visual-trial,22,196989,0.0-22.0,,,,,1001.0,,,animate (left arrow)&emsp;&emsp;&emsp;&emsp;inanimate (right arrow),semantic,3000.0,,/static/object_pics/picture_electronic/computer mouse.jpg,7000.0,inanimate,photo,1303.6392194969762,True,arrowright,,MEM,MEM_0071,2022-12-08 22:19:04
,visual-trial,23,202279,0.0-23.0,,,,,836.0,,,photo (left arrow)&emsp;&emsp;&emsp;&emsp;drawing (right arrow),perceptual,3000.0,,/static/object_pics/drawing_insect/fly.jpg,7000.0,animate,drawing,1437.293985525138,True,arrowright,,MEM,MEM_0071,2022-12-08 22:19:04
,visual-trial,24,207399,0.0-24.0,,,,,947.0,,,animate (left arrow)&emsp;&emsp;&emsp;&emsp;inanimate (right arrow),semantic,3000.0,,/static/object_pics/drawing_clothe/jeans.jpg,7000.0,inanimate,drawing,1159.3876530032744,True,arrowright,,MEM,MEM_0071,2022-12-08 22:19:04
,visual-trial,25,212192,0.0-25.0,,,,,1141.0,,,animate (left arrow)&emsp;&emsp;&emsp;&emsp;inanimate (right arrow),semantic,3000.0,,/static/object_pics/drawing_fruit/apple.jpg,7000.0,inanimate,drawing,626.102018853585,False,arrowleft,,MEM,MEM_0071,2022-12-08 22:19:04
,visual-trial,26,217237,0.0-26.0,,,,,784.0,,,animate (left arrow)&emsp;&emsp;&emsp;&emsp;inanimate (right arrow),semantic,3000.0,,/static/object_pics/picture_veggie/pumpkin.jpg,7000.0,inanimate,photo,1247.2300789370788,True,arrowright,,MEM,MEM_0071,2022-12-08 22:19:04
,visual-trial,27,222426,0.0-27.0,,,,,1230.0,,,photo (left arrow)&emsp;&emsp;&emsp;&emsp;drawing (right arrow),perceptual,3000.0,,/static/object_pics/drawing_insect/scorpion.jpg,7000.0,animate,drawing,943.5675062989959,True,arrowright,,MEM,MEM_0071,2022-12-08 22:19:04
,visual-trial,28,228490,0.0-28.0,,,,,1910.0,,,animate (left arrow)&emsp;&emsp;&emsp;&emsp;inanimate (right arrow),semantic,3000.0,,/static/object_pics/picture_mammal/rabbit.jpg,7000.0,animate,photo,1141.429116460231,False,arrowright,,MEM,MEM_0071,2022-12-08 22:19:04
,visual-trial,29,233920,0.0-29.0,,,,,1126.0,,,photo (left arrow)&emsp;&emsp;&emsp;&emsp;drawing (right arrow),perceptual,3000.0,,/static/object_pics/picture_mammal/wolf.jpg,7000.0,animate,photo,1290.0686412914108,True,arrowleft,,MEM,MEM_0071,2022-12-08 22:19:04
,visual-trial,30,239251,0.0-30.0,,,,,1600.0,,,animate (left arrow)&emsp;&emsp;&emsp;&emsp;inanimate (right arrow),semantic,3000.0,,/static/object_pics/drawing_fruit/watermelon.jpg,7000.0,inanimate,drawing,711.2688237698657,False,arrowleft,,MEM,MEM_0071,2022-12-08 22:19:04
,visual-trial,31,245662,0.0-31.0,,,,,2275.0,,,photo (left arrow)&emsp;&emsp;&emsp;&emsp;drawing (right arrow),perceptual,3000.0,,/static/object_pics/drawing_clothe/scarf.jpg,7000.0,inanimate,drawing,1117.6097850831497,True,arrowright,,MEM,MEM_0071,2022-12-08 22:19:04
,visual-trial,32,250379,0.0-32.0,,,,,894.0,,,photo (left arrow)&emsp;&emsp;&emsp;&emsp;drawing (right arrow),perceptual,3000.0,,/static/object_pics/drawing_insect/snail.jpg,7000.0,animate,drawing,807.3841215791019,True,arrowright,,MEM,MEM_0071,2022-12-08 22:19:04
,visual-trial,33,255332,0.0-33.0,,,,,501.0,,,photo (left arrow)&emsp;&emsp;&emsp;&emsp;drawing (right arrow),perceptual,3000.0,,/static/object_pics/picture_bird/vulture.jpg,7000.0,animate,photo,1434.926658861792,True,arrowleft,,MEM,MEM_0071,2022-12-08 22:19:04
,visual-trial,34,260772,0.0-34.0,,,,,1176.0,,,animate (left arrow)&emsp;&emsp;&emsp;&emsp;inanimate (right arrow),semantic,3000.0,,/static/object_pics/drawing_fruit/papaya.jpg,7000.0,inanimate,drawing,1244.6416762093495,False,arrowleft,,MEM,MEM_0071,2022-12-08 22:19:04
,visual-trial,35,266741,0.0-35.0,,,,,1567.0,,,animate (left arrow)&emsp;&emsp;&emsp;&emsp;inanimate (right arrow),semantic,3000.0,,/static/object_pics/drawing_insect/mosquito.jpg,7000.0,animate,drawing,1386.7469667284095,True,arrowleft,,MEM,MEM_0071,2022-12-08 22:19:04
,visual-trial,36,271067,0.0-36.0,,,,,629.0,,,animate (left arrow)&emsp;&emsp;&emsp;&emsp;inanimate (right arrow),semantic,3000.0,,/static/object_pics/drawing_clothe/football sneaker.jpg,7000.0,inanimate,drawing,680.7698551125392,False,arrowleft,,MEM,MEM_0071,2022-12-08 22:19:04
,visual-trial,37,276060,0.0-37.0,,,,,822.0,,,photo (left arrow)&emsp;&emsp;&emsp;&emsp;drawing (right arrow),perceptual,3000.0,,/static/object_pics/drawing_insect/spider.jpg,7000.0,animate,drawing,1154.074956761448,True,arrowright,,MEM,MEM_0071,2022-12-08 22:19:04
,visual-trial,38,282010,0.0-38.0,,,,,1532.0,,,animate (left arrow)&emsp;&emsp;&emsp;&emsp;inanimate (right arrow),semantic,3000.0,,/static/object_pics/picture_electronic/remote control.jpg,7000.0,inanimate,photo,1390.2279635988486,True,arrowright,,MEM,MEM_0071,2022-12-08 22:19:04
,visual-trial,39,287164,0.0-39.0,,,,,1228.0,,,photo (left arrow)&emsp;&emsp;&emsp;&emsp;drawing (right arrow),perceptual,3000.0,,/static/object_pics/drawing_sea/swordfish.jpg,7000.0,animate,drawing,912.9113169040164,True,arrowright,,MEM,MEM_0071,2022-12-08 22:19:04
,visual-trial,40,291514,0.0-40.0,,,,,652.0,,,photo (left arrow)&emsp;&emsp;&emsp;&emsp;drawing (right arrow),perceptual,3000.0,,/static/object_pics/picture_bird/parrot.jpg,7000.0,animate,photo,678.864080275566,True,arrowleft,,MEM,MEM_0071,2022-12-08 22:19:04
,visual-trial,41,296002,0.0-41.0,,,,,940.0,,,animate (left arrow)&emsp;&emsp;&emsp;&emsp;inanimate (right arrow),semantic,3000.0,,/static/object_pics/picture_mammal/lion.jpg,7000.0,animate,photo,528.8461759279502,False,arrowright,,MEM,MEM_0071,2022-12-08 22:19:04
,html-keyboard-response,42,317919,0.0-42.0,,,,,21911.0,"
        <p>In that last set of trials, you were correct 75% of the time.</p>
        <p>Feel free to take a brief break. In the next set of trials, you will continue with the same task.
        The instructions are displayed below, in case you need a refresher.
        Press the space bar when you are ready to continue.</p>
        <p>In this task, you will see a series of objects. On some trials, your job is to determine
        whether the object shown is a color photograph or a line drawing. On other trials, your job
        is to determine whether the object represented is animate or inanimate.

        <br><br>
        You will know which response to make depending on the initial display, which will say
        ""animate / inanimate"" or ""photo / drawing"".
        <br>
        You will be able to use the left arrow key to report animate/photo and the right arrow key to report inanimate/drawing.
        <br>
        Please respond as quickly as possible, and use your dominant hand to make your responses.
        <br><br>
        You will be able to use the left arrow key to report animate/photo and the right arrow key to report inanimate/drawing.
        <br><br>
        <img src=""/static/instructions_pics/visual_pic.png"" height=""300px"">
        <br>
        In the example in the top row, the correct response is animate (left arrow key). In the example in the bottom row, the correct response is photo (left arrow key).
        <br>
        <br>When you are ready to begin, press the space bar.</p>", ,,,,,,,,,,,,,MEM,MEM_0071,2022-12-08 22:19:04
,visual-trial,43,322633,0.0-43.0,,,,,971.0,,,photo (left arrow)&emsp;&emsp;&emsp;&emsp;drawing (right arrow),perceptual,3000.0,,/static/object_pics/picture_electronic/printer.jpg,7000.0,inanimate,photo,728.003032953003,True,arrowleft,,MEM,MEM_0071,2022-12-08 22:19:04
,visual-trial,44,327618,0.0-44.0,,,,,716.0,,,photo (left arrow)&emsp;&emsp;&emsp;&emsp;drawing (right arrow),perceptual,3000.0,,/static/object_pics/drawing_fruit/cherry.jpg,7000.0,inanimate,drawing,1257.6800569865,True,arrowright,,MEM,MEM_0071,2022-12-08 22:19:04
,visual-trial,45,332637,0.0-45.0,,,,,653.0,,,photo (left arrow)&emsp;&emsp;&emsp;&emsp;drawing (right arrow),perceptual,3000.0,,/static/object_pics/drawing_sea/starfish.jpg,7000.0,animate,drawing,1340.3693644999519,True,arrowright,,MEM,MEM_0071,2022-12-08 22:19:04
,visual-trial,46,337314,0.0-46.0,,,,,778.0,,,photo (left arrow)&emsp;&emsp;&emsp;&emsp;drawing (right arrow),perceptual,3000.0,,/static/object_pics/picture_veggie/asparagus.jpg,7000.0,inanimate,photo,885.1966207313784,True,arrowleft,,MEM,MEM_0071,2022-12-08 22:19:04
,visual-trial,47,342368,0.0-47.0,,,,,929.0,,,animate (left arrow)&emsp;&emsp;&emsp;&emsp;inanimate (right arrow),semantic,3000.0,,/static/object_pics/picture_veggie/potato.jpg,7000.0,inanimate,photo,1110.6441216201838,True,arrowright,,MEM,MEM_0071,2022-12-08 22:19:04
,visual-trial,48,347356,0.0-48.0,,,,,828.0,,,animate (left arrow)&emsp;&emsp;&emsp;&emsp;inanimate (right arrow),semantic,3000.0,,/static/object_pics/drawing_fruit/coconut.jpg,7000.0,inanimate,drawing,1133.1192687420585,False,arrowleft,,MEM,MEM_0071,2022-12-08 22:19:04
,visual-trial,49,352502,0.0-49.0,,,,,652.0,,,photo (left arrow)&emsp;&emsp;&emsp;&emsp;drawing (right arrow),perceptual,3000.0,,/static/object_pics/picture_mammal/gorilla.jpg,7000.0,animate,photo,1473.02434191663,True,arrowleft,,MEM,MEM_0071,2022-12-08 22:19:04
,visual-trial,50,357214,0.0-50.0,,,,,598.0,,,photo (left arrow)&emsp;&emsp;&emsp;&emsp;drawing (right arrow),perceptual,3000.0,,/static/object_pics/picture_bird/peacock.jpg,7000.0,animate,photo,1101.0290099386639,True,arrowleft,,MEM,MEM_0071,2022-12-08 22:19:04
,visual-trial,51,362183,0.0-51.0,,,,,879.0,,,photo (left arrow)&emsp;&emsp;&emsp;&emsp;drawing (right arrow),perceptual,3000.0,,/static/object_pics/drawing_sea/mantaray.jpg,7000.0,animate,drawing,1074.0892822844164,True,arrowright,,MEM,MEM_0071,2022-12-08 22:19:04
,visual-trial,52,367092,0.0-52.0,,,,,852.0,,,photo (left arrow)&emsp;&emsp;&emsp;&emsp;drawing (right arrow),perceptual,3000.0,,/static/object_pics/drawing_sea/octopus.jpg,7000.0,animate,drawing,1040.5358678144753,True,arrowright,,MEM,MEM_0071,2022-12-08 22:19:04
,visual-trial,53,372116,0.0-53.0,,,,,566.0,,,animate (left arrow)&emsp;&emsp;&emsp;&emsp;inanimate (right arrow),semantic,3000.0,,/static/object_pics/drawing_fruit/strawberry.jpg,7000.0,inanimate,drawing,1433.4273293536012,False,arrowleft,,MEM,MEM_0071,2022-12-08 22:19:04
,visual-trial,54,376804,0.0-54.0,,,,,756.0,,,animate (left arrow)&emsp;&emsp;&emsp;&emsp;inanimate (right arrow),semantic,3000.0,,/static/object_pics/picture_mammal/rhinoceros.jpg,7000.0,animate,photo,914.1154357181626,False,arrowright,,MEM,MEM_0071,2022-12-08 22:19:04
,visual-trial,55,381776,0.0-55.0,,,,,1256.0,,,photo (left arrow)&emsp;&emsp;&emsp;&emsp;drawing (right arrow),perceptual,3000.0,,/static/object_pics/drawing_fruit/pineapple.jpg,7000.0,inanimate,drawing,697.0960751692628,True,arrowright,,MEM,MEM_0071,2022-12-08 22:19:04
,visual-trial,56,386118,0.0-56.0,,,,,700.0,,,photo (left arrow)&emsp;&emsp;&emsp;&emsp;drawing (right arrow),perceptual,3000.0,,/static/object_pics/drawing_insect/mantis.jpg,7000.0,animate,drawing,622.8508087889521,True,arrowright,,MEM,MEM_0071,2022-12-08 22:19:04
,visual-trial,57,390931,0.0-57.0,,,,,755.0,,,animate (left arrow)&emsp;&emsp;&emsp;&emsp;inanimate (right arrow),semantic,3000.0,,/static/object_pics/drawing_clothe/high heels.jpg,7000.0,inanimate,drawing,1044.1580593071803,True,arrowright,,MEM,MEM_0071,2022-12-08 22:19:04
,visual-trial,58,396181,0.0-58.0,,,,,1310.0,,,animate (left arrow)&emsp;&emsp;&emsp;&emsp;inanimate (right arrow),semantic,3000.0,,/static/object_pics/picture_electronic/hairdryer.jpg,7000.0,inanimate,photo,929.903981364433,True,arrowright,,MEM,MEM_0071,2022-12-08 22:19:04
,visual-trial,59,401482,0.0-59.0,,,,,1407.0,,,animate (left arrow)&emsp;&emsp;&emsp;&emsp;inanimate (right arrow),semantic,3000.0,,/static/object_pics/drawing_sea/piranha.jpg,7000.0,animate,drawing,871.6846380358834,True,arrowleft,,MEM,MEM_0071,2022-12-08 22:19:04
,visual-trial,60,406410,0.0-60.0,,,,,922.0,,,animate (left arrow)&emsp;&emsp;&emsp;&emsp;inanimate (right arrow),semantic,3000.0,,/static/object_pics/drawing_clothe/bowtie.jpg,7000.0,inanimate,drawing,991.4473653333331,False,arrowleft,,MEM,MEM_0071,2022-12-08 22:19:04
,visual-trial,61,412098,0.0-61.0,,,,,1490.0,,,photo (left arrow)&emsp;&emsp;&emsp;&emsp;drawing (right arrow),perceptual,3000.0,,/static/object_pics/drawing_fruit/kiwi.jpg,7000.0,inanimate,drawing,1178.9739798858504,True,arrowright,,MEM,MEM_0071,2022-12-08 22:19:04
,visual-trial,62,417550,0.0-62.0,,,,,1756.0,,,photo (left arrow)&emsp;&emsp;&emsp;&emsp;drawing (right arrow),perceptual,3000.0,,/static/object_pics/drawing_clothe/dress.jpg,7000.0,inanimate,drawing,667.4919105109063,True,arrowright,,MEM,MEM_0071,2022-12-08 22:19:04
,visual-trial,63,422680,0.0-63.0,,,,,1510.0,,,animate (left arrow)&emsp;&emsp;&emsp;&emsp;inanimate (right arrow),semantic,3000.0,,/static/object_pics/picture_mammal/squirrel.jpg,7000.0,animate,photo,599.3456385903518,False,arrowright,,MEM,MEM_0071,2022-12-08 22:19:04
,visual-trial,64,427960,0.0-64.0,,,,,953.0,,,photo (left arrow)&emsp;&emsp;&emsp;&emsp;drawing (right arrow),perceptual,3000.0,,/static/object_pics/drawing_sea/shark.jpg,7000.0,animate,drawing,1312.319277076703,True,arrowright,,MEM,MEM_0071,2022-12-08 22:19:04
,visual-trial,65,433070,0.0-65.0,,,,,1119.0,,,photo (left arrow)&emsp;&emsp;&emsp;&emsp;drawing (right arrow),perceptual,3000.0,,/static/object_pics/picture_mammal/camel.jpg,7000.0,animate,photo,968.7052524676217,True,arrowleft,,MEM,MEM_0071,2022-12-08 22:19:04
,visual-trial,66,438632,0.0-66.0,,,,,1454.0,,,animate (left arrow)&emsp;&emsp;&emsp;&emsp;inanimate (right arrow),semantic,3000.0,,/static/object_pics/drawing_clothe/glasses.jpg,7000.0,inanimate,drawing,1093.1470616798647,False,arrowleft,,MEM,MEM_0071,2022-12-08 22:19:04
,visual-trial,67,444618,0.0-67.0,,,,,1531.0,,,animate (left arrow)&emsp;&emsp;&emsp;&emsp;inanimate (right arrow),semantic,3000.0,,/static/object_pics/drawing_insect/beetle.jpg,7000.0,animate,drawing,1437.7577380327652,True,arrowleft,,MEM,MEM_0071,2022-12-08 22:19:04
,visual-trial,68,451015,0.0-68.0,,,,,1889.0,,,animate (left arrow)&emsp;&emsp;&emsp;&emsp;inanimate (right arrow),semantic,3000.0,,/static/object_pics/picture_electronic/gamepad.jpg,7000.0,inanimate,photo,1493.4416532534738,True,arrowright,,MEM,MEM_0071,2022-12-08 22:19:04
,visual-trial,69,456677,0.0-69.0,,,,,1766.0,,,animate (left arrow)&emsp;&emsp;&emsp;&emsp;inanimate (right arrow),semantic,3000.0,,/static/object_pics/picture_mammal/bear.jpg,7000.0,animate,photo,877.4483720238125,False,arrowright,,MEM,MEM_0071,2022-12-08 22:19:04
,visual-trial,70,462249,0.0-70.0,,,,,1755.0,,,photo (left arrow)&emsp;&emsp;&emsp;&emsp;drawing (right arrow),perceptual,3000.0,,/static/object_pics/picture_veggie/garlic.jpg,7000.0,inanimate,photo,800.7981572064946,True,arrowleft,,MEM,MEM_0071,2022-12-08 22:19:04
,visual-trial,71,468113,0.0-71.0,,,,,1349.0,,,animate (left arrow)&emsp;&emsp;&emsp;&emsp;inanimate (right arrow),semantic,3000.0,,/static/object_pics/picture_electronic/satellite dish.jpg,7000.0,inanimate,photo,1498.2636641094866,False,arrowleft,,MEM,MEM_0071,2022-12-08 22:19:04
,visual-trial,72,473815,0.0-72.0,,,,,1348.0,,,animate (left arrow)&emsp;&emsp;&emsp;&emsp;inanimate (right arrow),semantic,3000.0,,/static/object_pics/drawing_clothe/sport t-shirt.jpg,7000.0,inanimate,drawing,1331.9701602594141,False,arrowleft,,MEM,MEM_0071,2022-12-08 22:19:04
,visual-trial,73,479549,0.0-73.0,,,,,1512.0,,,animate (left arrow)&emsp;&emsp;&emsp;&emsp;inanimate (right arrow),semantic,3000.0,,/static/object_pics/picture_bird/canary.jpg,7000.0,animate,photo,1204.2867686722952,True,arrowleft,,MEM,MEM_0071,2022-12-08 22:19:04
,visual-trial,74,484270,0.0-74.0,,,,,851.0,,,photo (left arrow)&emsp;&emsp;&emsp;&emsp;drawing (right arrow),perceptual,3000.0,,/static/object_pics/picture_veggie/cucumber.jpg,7000.0,inanimate,photo,856.8488638513696,True,arrowleft,,MEM,MEM_0071,2022-12-08 22:19:04
,html-keyboard-response,75,513467,0.0-75.0,,,,,29193.0,"
        <p>In that last set of trials, you were correct 72% of the time.</p>
        <p>Feel free to take a brief break. In the next set of trials, you will continue with the same task.
        The instructions are displayed below, in case you need a refresher.
        Press the space bar when you are ready to continue.</p>
        <p>In this task, you will see a series of objects. On some trials, your job is to determine
        whether the object shown is a color photograph or a line drawing. On other trials, your job
        is to determine whether the object represented is animate or inanimate.

        <br><br>
        You will know which response to make depending on the initial display, which will say
        ""animate / inanimate"" or ""photo / drawing"".
        <br>
        You will be able to use the left arrow key to report animate/photo and the right arrow key to report inanimate/drawing.
        <br>
        Please respond as quickly as possible, and use your dominant hand to make your responses.
        <br><br>
        You will be able to use the left arrow key to report animate/photo and the right arrow key to report inanimate/drawing.
        <br><br>
        <img src=""/static/instructions_pics/visual_pic.png"" height=""300px"">
        <br>
        In the example in the top row, the correct response is animate (left arrow key). In the example in the bottom row, the correct response is photo (left arrow key).
        <br>
        <br>When you are ready to begin, press the space bar.</p>", ,,,,,,,,,,,,,MEM,MEM_0071,2022-12-08 22:19:04
,visual-trial,76,518326,0.0-76.0,,,,,935.0,,,photo (left arrow)&emsp;&emsp;&emsp;&emsp;drawing (right arrow),perceptual,3000.0,,/static/object_pics/picture_bird/flamingo.jpg,7000.0,animate,photo,904.750768349187,True,arrowleft,,MEM,MEM_0071,2022-12-08 22:19:04
,visual-trial,77,524241,0.0-77.0,,,,,2227.0,,,animate (left arrow)&emsp;&emsp;&emsp;&emsp;inanimate (right arrow),semantic,3000.0,,/static/object_pics/picture_veggie/beetroot.jpg,7000.0,inanimate,photo,672.7011282673005,True,arrowright,,MEM,MEM_0071,2022-12-08 22:19:04
,visual-trial,78,530601,0.0-78.0,,,,,2065.0,,,animate (left arrow)&emsp;&emsp;&emsp;&emsp;inanimate (right arrow),semantic,3000.0,,/static/object_pics/drawing_fruit/apricot.jpg,7000.0,inanimate,drawing,1274.6495669213255,False,arrowleft,,MEM,MEM_0071,2022-12-08 22:19:04
,visual-trial,79,536459,0.0-79.0,,,,,1836.0,,,animate (left arrow)&emsp;&emsp;&emsp;&emsp;inanimate (right arrow),semantic,3000.0,,/static/object_pics/drawing_insect/centipede.jpg,7000.0,animate,drawing,1003.4213562485581,True,arrowleft,,MEM,MEM_0071,2022-12-08 22:19:04
,visual-trial,80,542162,0.0-80.0,,,,,1978.0,,,photo (left arrow)&emsp;&emsp;&emsp;&emsp;drawing (right arrow),perceptual,3000.0,,/static/object_pics/drawing_clothe/gloves.jpg,7000.0,inanimate,drawing,701.2106725851361,True,arrowright,,MEM,MEM_0071,2022-12-08 22:19:04
,visual-trial,81,548146,0.0-81.0,,,,,1610.0,,,animate (left arrow)&emsp;&emsp;&emsp;&emsp;inanimate (right arrow),semantic,3000.0,,/static/object_pics/picture_electronic/toaster.jpg,7000.0,inanimate,photo,1358.1563722451144,True,arrowright,,MEM,MEM_0071,2022-12-08 22:19:04
,visual-trial,82,555048,0.0-82.0,,,,,2631.0,,,photo (left arrow)&emsp;&emsp;&emsp;&emsp;drawing (right arrow),perceptual,3000.0,,/static/object_pics/picture_electronic/laptop.jpg,7000.0,inanimate,photo,1252.543110670489,True,arrowleft,,MEM,MEM_0071,2022-12-08 22:19:04
,visual-trial,83,560585,0.0-83.0,,,,,1192.0,,,animate (left arrow)&emsp;&emsp;&emsp;&emsp;inanimate (right arrow),semantic,3000.0,,/static/object_pics/drawing_sea/seal.jpg,7000.0,animate,drawing,1328.9929401042045,True,arrowleft,,MEM,MEM_0071,2022-12-08 22:19:04
,visual-trial,84,566362,0.0-84.0,,,,,2211.0,,,animate (left arrow)&emsp;&emsp;&emsp;&emsp;inanimate (right arrow),semantic,3000.0,,/static/object_pics/drawing_clothe/shirt.jpg,7000.0,inanimate,drawing,550.6764763984187,False,arrowleft,,MEM,MEM_0071,2022-12-08 22:19:04
,visual-trial,85,571512,0.0-85.0,,,,,1498.0,,,photo (left arrow)&emsp;&emsp;&emsp;&emsp;drawing (right arrow),perceptual,3000.0,,/static/object_pics/drawing_sea/eel.jpg,7000.0,animate,drawing,633.1176733698401,True,arrowright,,MEM,MEM_0071,2022-12-08 22:19:04
,visual-trial,86,577157,0.0-86.0,,,,,1864.0,,,animate (left arrow)&emsp;&emsp;&emsp;&emsp;inanimate (right arrow),semantic,3000.0,,/static/object_pics/picture_veggie/artichoke.jpg,7000.0,inanimate,photo,758.4291010910133,True,arrowright,,MEM,MEM_0071,2022-12-08 22:19:04
,visual-trial,87,582542,0.0-87.0,,,,,1370.0,,,animate (left arrow)&emsp;&emsp;&emsp;&emsp;inanimate (right arrow),semantic,3000.0,,/static/object_pics/drawing_sea/dolphin.jpg,7000.0,animate,drawing,996.0146093534881,True,arrowleft,,MEM,MEM_0071,2022-12-08 22:19:04
,visual-trial,88,588726,0.0-88.0,,,,,2081.0,,,animate (left arrow)&emsp;&emsp;&emsp;&emsp;inanimate (right arrow),semantic,3000.0,,/static/object_pics/picture_veggie/carrot.jpg,7000.0,inanimate,photo,1085.1944280401237,True,arrowright,,MEM,MEM_0071,2022-12-08 22:19:04
,visual-trial,89,593163,0.0-89.0,,,,,671.0,,,photo (left arrow)&emsp;&emsp;&emsp;&emsp;drawing (right arrow),perceptual,3000.0,,/static/object_pics/picture_mammal/bull.jpg,7000.0,animate,photo,749.2204704194696,True,arrowleft,,MEM,MEM_0071,2022-12-08 22:19:04
,visual-trial,90,598116,0.0-90.0,,,,,1249.0,,,animate (left arrow)&emsp;&emsp;&emsp;&emsp;inanimate (right arrow),semantic,3000.0,,/static/object_pics/drawing_fruit/melon.jpg,7000.0,inanimate,drawing,682.4032686164044,False,arrowleft,,MEM,MEM_0071,2022-12-08 22:19:04
,visual-trial,91,603326,0.0-91.0,,,,,826.0,,,photo (left arrow)&emsp;&emsp;&emsp;&emsp;drawing (right arrow),perceptual,3000.0,,/static/object_pics/picture_veggie/corn.jpg,7000.0,inanimate,photo,1372.7099663027611,True,arrowleft,,MEM,MEM_0071,2022-12-08 22:19:04
,visual-trial,92,608968,0.0-92.0,,,,,2122.0,,,photo (left arrow)&emsp;&emsp;&emsp;&emsp;drawing (right arrow),perceptual,3000.0,,/static/object_pics/drawing_clothe/slipper.jpg,7000.0,inanimate,drawing,506.3818620880458,True,arrowright,,MEM,MEM_0071,2022-12-08 22:19:04
,visual-trial,93,613791,0.0-93.0,,,,,604.0,,,photo (left arrow)&emsp;&emsp;&emsp;&emsp;drawing (right arrow),perceptual,3000.0,,/static/object_pics/picture_mammal/elephant.jpg,7000.0,animate,photo,1198.209574661446,True,arrowleft,,MEM,MEM_0071,2022-12-08 22:19:04
,visual-trial,94,620221,0.0-94.0,,,,,2497.0,,,animate (left arrow)&emsp;&emsp;&emsp;&emsp;inanimate (right arrow),semantic,3000.0,,/static/object_pics/picture_bird/turkey.jpg,7000.0,animate,photo,912.7019470205166,False,arrowright,,MEM,MEM_0071,2022-12-08 22:19:04
,visual-trial,95,625764,0.0-95.0,,,,,1270.0,,,animate (left arrow)&emsp;&emsp;&emsp;&emsp;inanimate (right arrow),semantic,3000.0,,/static/object_pics/drawing_clothe/belt.jpg,7000.0,inanimate,drawing,1258.2326051795917,False,arrowleft,,MEM,MEM_0071,2022-12-08 22:19:04
,visual-trial,96,630823,0.0-96.0,,,,,787.0,,,photo (left arrow)&emsp;&emsp;&emsp;&emsp;drawing (right arrow),perceptual,3000.0,,/static/object_pics/picture_mammal/giraffe.jpg,7000.0,animate,photo,1254.6636362324841,True,arrowleft,,MEM,MEM_0071,2022-12-08 22:19:04
,visual-trial,97,636661,0.0-97.0,,,,,1335.0,,,photo (left arrow)&emsp;&emsp;&emsp;&emsp;drawing (right arrow),perceptual,3000.0,,/static/object_pics/drawing_insect/ant.jpg,7000.0,animate,drawing,1489.8344270475457,True,arrowright,,MEM,MEM_0071,2022-12-08 22:19:04
,visual-trial,98,642484,0.0-98.0,,,,,1678.0,,,animate (left arrow)&emsp;&emsp;&emsp;&emsp;inanimate (right arrow),semantic,3000.0,,/static/object_pics/picture_bird/eagle.jpg,7000.0,animate,photo,1125.4202855343324,False,arrowright,,MEM,MEM_0071,2022-12-08 22:19:04
,visual-trial,99,648288,0.0-99.0,,,,,1306.0,,,photo (left arrow)&emsp;&emsp;&emsp;&emsp;drawing (right arrow),perceptual,3000.0,,/static/object_pics/drawing_insect/worm.jpg,7000.0,animate,drawing,1484.9179542470172,True,arrowright,,MEM,MEM_0071,2022-12-08 22:19:04
,visual-trial,100,653795,0.0-100.0,,,,,1451.0,,,photo (left arrow)&emsp;&emsp;&emsp;&emsp;drawing (right arrow),perceptual,3000.0,,/static/object_pics/drawing_insect/cockroach.jpg,7000.0,animate,drawing,1034.8179139289466,True,arrowright,,MEM,MEM_0071,2022-12-08 22:19:04
,visual-trial,101,658840,0.0-101.0,,,,,603.0,,,photo (left arrow)&emsp;&emsp;&emsp;&emsp;drawing (right arrow),perceptual,3000.0,,/static/object_pics/drawing_insect/dragonfly.jpg,7000.0,animate,drawing,1419.2308930665517,True,arrowright,,MEM,MEM_0071,2022-12-08 22:19:04
,visual-trial,102,664446,0.0-102.0,,,,,1449.0,,,animate (left arrow)&emsp;&emsp;&emsp;&emsp;inanimate (right arrow),semantic,3000.0,,/static/object_pics/drawing_sea/crab.jpg,7000.0,animate,drawing,1144.2217562887647,True,arrowleft,,MEM,MEM_0071,2022-12-08 22:19:04
,visual-trial,103,669592,0.0-103.0,,,,,987.0,,,animate (left arrow)&emsp;&emsp;&emsp;&emsp;inanimate (right arrow),semantic,3000.0,,/static/object_pics/drawing_sea/jellyfish.jpg,7000.0,animate,drawing,1142.0313026265956,True,arrowleft,,MEM,MEM_0071,2022-12-08 22:19:04
,visual-trial,104,674746,0.0-104.0,,,,,853.0,,,photo (left arrow)&emsp;&emsp;&emsp;&emsp;drawing (right arrow),perceptual,3000.0,,/static/object_pics/picture_bird/pigeon.jpg,7000.0,animate,photo,1282.0662001666087,True,arrowleft,,MEM,MEM_0071,2022-12-08 22:19:04
,visual-trial,105,679494,0.0-105.0,,,,,1168.0,,,animate (left arrow)&emsp;&emsp;&emsp;&emsp;inanimate (right arrow),semantic,3000.0,,/static/object_pics/picture_bird/duck.jpg,7000.0,animate,photo,560.8969200394718,False,arrowright,,MEM,MEM_0071,2022-12-08 22:19:04
,visual-trial,106,684554,0.0-106.0,,,,,996.0,,,photo (left arrow)&emsp;&emsp;&emsp;&emsp;drawing (right arrow),perceptual,3000.0,,/static/object_pics/picture_bird/hen.jpg,7000.0,animate,photo,1039.8998621768533,True,arrowleft,,MEM,MEM_0071,2022-12-08 22:19:04
,visual-trial,107,689753,0.0-107.0,,,,,1326.0,,,photo (left arrow)&emsp;&emsp;&emsp;&emsp;drawing (right arrow),perceptual,3000.0,,/static/object_pics/drawing_fruit/banana.jpg,7000.0,inanimate,drawing,848.5065533748971,True,arrowright,,MEM,MEM_0071,2022-12-08 22:19:04
,html-keyboard-response,108,692453,0.0-108.0,,,,,2698.0,"
        <p>In that last set of trials, you were correct 78% of the time.</p>
        <p>Feel free to take a brief break. In the next set of trials, you will continue with the same task.
        The instructions are displayed below, in case you need a refresher.
        Press the space bar when you are ready to continue.</p>
        <p>In this task, you will see a series of objects. On some trials, your job is to determine
        whether the object shown is a color photograph or a line drawing. On other trials, your job
        is to determine whether the object represented is animate or inanimate.

        <br><br>
        You will know which response to make depending on the initial display, which will say
        ""animate / inanimate"" or ""photo / drawing"".
        <br>
        You will be able to use the left arrow key to report animate/photo and the right arrow key to report inanimate/drawing.
        <br>
        Please respond as quickly as possible, and use your dominant hand to make your responses.
        <br><br>
        You will be able to use the left arrow key to report animate/photo and the right arrow key to report inanimate/drawing.
        <br><br>
        <img src=""/static/instructions_pics/visual_pic.png"" height=""300px"">
        <br>
        In the example in the top row, the correct response is animate (left arrow key). In the example in the bottom row, the correct response is photo (left arrow key).
        <br>
        <br>When you are ready to begin, press the space bar.</p>", ,,,,,,,,,,,,,MEM,MEM_0071,2022-12-08 22:19:04
,visual-trial,109,697349,0.0-109.0,,,,,1330.0,,,animate (left arrow)&emsp;&emsp;&emsp;&emsp;inanimate (right arrow),semantic,3000.0,,/static/object_pics/picture_electronic/calculator.jpg,7000.0,inanimate,photo,549.7140734137178,True,arrowright,,MEM,MEM_0071,2022-12-08 22:19:04
,visual-trial,110,702393,0.0-110.0,,,,,805.0,,,animate (left arrow)&emsp;&emsp;&emsp;&emsp;inanimate (right arrow),semantic,3000.0,,/static/object_pics/picture_mammal/sheep.jpg,7000.0,animate,photo,1214.6488295377721,False,arrowright,,MEM,MEM_0071,2022-12-08 22:19:04
,visual-trial,111,707352,0.0-111.0,,,,,905.0,,,photo (left arrow)&emsp;&emsp;&emsp;&emsp;drawing (right arrow),perceptual,3000.0,,/static/object_pics/drawing_insect/ladybug.jpg,7000.0,animate,drawing,1036.6026401018264,True,arrowright,,MEM,MEM_0071,2022-12-08 22:19:04
,visual-trial,112,711523,0.0-112.0,,,,,453.0,,,photo (left arrow)&emsp;&emsp;&emsp;&emsp;drawing (right arrow),perceptual,3000.0,,/static/object_pics/picture_bird/owl.jpg,7000.0,animate,photo,704.8399503647165,True,arrowleft,,MEM,MEM_0071,2022-12-08 22:19:04
,visual-trial,113,716185,0.0-113.0,,,,,780.0,,,photo (left arrow)&emsp;&emsp;&emsp;&emsp;drawing (right arrow),perceptual,3000.0,,/static/object_pics/picture_electronic/handmixer.jpg,7000.0,inanimate,photo,863.65412185591,True,arrowleft,,MEM,MEM_0071,2022-12-08 22:19:04
,visual-trial,114,720541,0.0-114.0,,,,,799.0,,,photo (left arrow)&emsp;&emsp;&emsp;&emsp;drawing (right arrow),perceptual,3000.0,,/static/object_pics/drawing_sea/killer whale.jpg,7000.0,animate,drawing,542.7585111938788,True,arrowright,,MEM,MEM_0071,2022-12-08 22:19:04
,visual-trial,115,726007,0.0-115.0,,,,,992.0,,,photo (left arrow)&emsp;&emsp;&emsp;&emsp;drawing (right arrow),perceptual,3000.0,,/static/object_pics/picture_electronic/coffee maker.jpg,7000.0,inanimate,photo,1455.5568264134115,True,arrowleft,,MEM,MEM_0071,2022-12-08 22:19:04
,visual-trial,116,730709,0.0-116.0,,,,,1176.0,,,photo (left arrow)&emsp;&emsp;&emsp;&emsp;drawing (right arrow),perceptual,3000.0,,/static/object_pics/picture_veggie/cauliflower.jpg,7000.0,inanimate,photo,512.8053413539919,True,arrowleft,,MEM,MEM_0071,2022-12-08 22:19:04
,visual-trial,117,735622,0.0-117.0,,,,,963.0,,,animate (left arrow)&emsp;&emsp;&emsp;&emsp;inanimate (right arrow),semantic,3000.0,,/static/object_pics/drawing_fruit/orange.jpg,7000.0,inanimate,drawing,936.1866230355843,False,arrowleft,,MEM,MEM_0071,2022-12-08 22:19:04
,visual-trial,118,741435,0.0-118.0,,,,,1662.0,,,photo (left arrow)&emsp;&emsp;&emsp;&emsp;drawing (right arrow),perceptual,3000.0,,/static/object_pics/drawing_fruit/lemon.jpg,7000.0,inanimate,drawing,1132.6663257068874,True,arrowright,,MEM,MEM_0071,2022-12-08 22:19:04
,visual-trial,119,746681,0.0-119.0,,,,,1084.0,,,photo (left arrow)&emsp;&emsp;&emsp;&emsp;drawing (right arrow),perceptual,3000.0,,/static/object_pics/drawing_sea/seahorse.jpg,7000.0,animate,drawing,1144.218375303577,True,arrowright,,MEM,MEM_0071,2022-12-08 22:19:04
,visual-trial,120,750931,0.0-120.0,,,,,597.0,,,animate (left arrow)&emsp;&emsp;&emsp;&emsp;inanimate (right arrow),semantic,3000.0,,/static/object_pics/drawing_clothe/sock.jpg,7000.0,inanimate,drawing,636.8766008368966,False,arrowleft,,MEM,MEM_0071,2022-12-08 22:19:04
,visual-trial,121,756147,0.0-121.0,,,,,705.0,,,photo (left arrow)&emsp;&emsp;&emsp;&emsp;drawing (right arrow),perceptual,3000.0,,/static/object_pics/drawing_insect/bumble bee.jpg,7000.0,animate,drawing,1481.20349497415,True,arrowright,,MEM,MEM_0071,2022-12-08 22:19:04
,visual-trial,122,760994,0.0-122.0,,,,,1157.0,,,animate (left arrow)&emsp;&emsp;&emsp;&emsp;inanimate (right arrow),semantic,3000.0,,/static/object_pics/picture_mammal/antelope.jpg,7000.0,animate,photo,670.0248661157775,False,arrowright,,MEM,MEM_0071,2022-12-08 22:19:04
,visual-trial,123,766326,0.0-123.0,,,,,1729.0,,,photo (left arrow)&emsp;&emsp;&emsp;&emsp;drawing (right arrow),perceptual,3000.0,,/static/object_pics/drawing_clothe/tie.jpg,7000.0,inanimate,drawing,585.5729306911908,True,arrowright,,MEM,MEM_0071,2022-12-08 22:19:04
,visual-trial,124,771289,0.0-124.0,,,,,1384.0,,,animate (left arrow)&emsp;&emsp;&emsp;&emsp;inanimate (right arrow),semantic,3000.0,,/static/object_pics/picture_mammal/kangaroo.jpg,7000.0,animate,photo,559.4430199581894,False,arrowright,,MEM,MEM_0071,2022-12-08 22:19:04
,visual-trial,125,776299,0.0-125.0,,,,,869.0,,,animate (left arrow)&emsp;&emsp;&emsp;&emsp;inanimate (right arrow),semantic,3000.0,,/static/object_pics/picture_bird/pelican.jpg,7000.0,animate,photo,1129.0027777903188,True,arrowleft,,MEM,MEM_0071,2022-12-08 22:19:04
,visual-trial,126,781263,0.0-126.0,,,,,1082.0,,,animate (left arrow)&emsp;&emsp;&emsp;&emsp;inanimate (right arrow),semantic,3000.0,,/static/object_pics/picture_electronic/keyboard.jpg,7000.0,inanimate,photo,867.9362460984362,True,arrowright,,MEM,MEM_0071,2022-12-08 22:19:04
,visual-trial,127,785965,0.0-127.0,,,,,1176.0,,,animate (left arrow)&emsp;&emsp;&emsp;&emsp;inanimate (right arrow),semantic,3000.0,,/static/object_pics/picture_bird/toucan.jpg,7000.0,animate,photo,515.4844507377794,False,arrowright,,MEM,MEM_0071,2022-12-08 22:19:04
,visual-trial,128,790999,0.0-128.0,,,,,1024.0,,,photo (left arrow)&emsp;&emsp;&emsp;&emsp;drawing (right arrow),perceptual,3000.0,,/static/object_pics/picture_veggie/lettuce.jpg,7000.0,inanimate,photo,985.5361141015828,True,arrowleft,,MEM,MEM_0071,2022-12-08 22:19:04
,visual-trial,129,796722,0.0-129.0,,,,,1244.0,,,animate (left arrow)&emsp;&emsp;&emsp;&emsp;inanimate (right arrow),semantic,3000.0,,/static/object_pics/drawing_sea/seaturtle.jpg,7000.0,animate,drawing,1453.7721330134973,True,arrowleft,,MEM,MEM_0071,2022-12-08 22:19:04
,visual-trial,130,801763,0.0-130.0,,,,,1403.0,,,animate (left arrow)&emsp;&emsp;&emsp;&emsp;inanimate (right arrow),semantic,3000.0,,/static/object_pics/picture_bird/hummingbird.jpg,7000.0,animate,photo,609.2915030252645,False,arrowright,,MEM,MEM_0071,2022-12-08 22:19:04
,visual-trial,131,806236,0.0-131.0,,,,,780.0,,,photo (left arrow)&emsp;&emsp;&emsp;&emsp;drawing (right arrow),perceptual,3000.0,,/static/object_pics/drawing_sea/shrimp.jpg,7000.0,animate,drawing,682.9497520908656,True,arrowright,,MEM,MEM_0071,2022-12-08 22:19:04
,visual-trial,132,811561,0.0-132.0,,,,,1155.0,,,animate (left arrow)&emsp;&emsp;&emsp;&emsp;inanimate (right arrow),semantic,3000.0,,/static/object_pics/picture_bird/penguin.jpg,7000.0,animate,photo,1144.3367683606816,False,arrowright,,MEM,MEM_0071,2022-12-08 22:19:04
,visual-trial,133,816747,0.0-133.0,,,,,1125.0,,,animate (left arrow)&emsp;&emsp;&emsp;&emsp;inanimate (right arrow),semantic,3000.0,,/static/object_pics/picture_veggie/onions.jpg,7000.0,inanimate,photo,1045.9253796853686,True,arrowright,,MEM,MEM_0071,2022-12-08 22:19:04
,visual-trial,134,821802,0.0-134.0,,,,,1434.0,,,animate (left arrow)&emsp;&emsp;&emsp;&emsp;inanimate (right arrow),semantic,3000.0,,/static/object_pics/picture_veggie/mushrooms.jpg,7000.0,inanimate,photo,602.7879963562764,True,arrowright,,MEM,MEM_0071,2022-12-08 22:19:04
,visual-trial,135,826661,0.0-135.0,,,,,726.0,,,animate (left arrow)&emsp;&emsp;&emsp;&emsp;inanimate (right arrow),semantic,3000.0,,/static/object_pics/drawing_fruit/grapes.jpg,7000.0,inanimate,drawing,1117.8201510204724,False,arrowleft,,MEM,MEM_0071,2022-12-08 22:19:04
,visual-trial,136,832202,0.0-136.0,,,,,1866.0,,,photo (left arrow)&emsp;&emsp;&emsp;&emsp;drawing (right arrow),perceptual,3000.0,,/static/object_pics/drawing_clothe/hat.jpg,7000.0,inanimate,drawing,655.6773947724903,True,arrowright,,MEM,MEM_0071,2022-12-08 22:19:04
,visual-trial,137,838503,0.0-137.0,,,,,2168.0,,,animate (left arrow)&emsp;&emsp;&emsp;&emsp;inanimate (right arrow),semantic,3000.0,,/static/object_pics/drawing_sea/pufferfish.jpg,7000.0,animate,drawing,1113.9943802042703,True,arrowleft,,MEM,MEM_0071,2022-12-08 22:19:04
,visual-trial,138,843870,0.0-138.0,,,,,1255.0,,,photo (left arrow)&emsp;&emsp;&emsp;&emsp;drawing (right arrow),perceptual,3000.0,,/static/object_pics/drawing_insect/grasshopper.jpg,7000.0,animate,drawing,1099.1686359362334,True,arrowright,,MEM,MEM_0071,2022-12-08 22:19:04
,visual-trial,139,849360,0.0-139.0,,,,,1019.0,,,animate (left arrow)&emsp;&emsp;&emsp;&emsp;inanimate (right arrow),semantic,3000.0,,/static/object_pics/picture_veggie/pepper.jpg,7000.0,inanimate,photo,1456.2215733008945,True,arrowright,,MEM,MEM_0071,2022-12-08 22:19:04
,visual-trial,140,855139,0.0-140.0,,,,,1860.0,,,photo (left arrow)&emsp;&emsp;&emsp;&emsp;drawing (right arrow),perceptual,3000.0,,/static/object_pics/picture_bird/ostrich.jpg,7000.0,animate,photo,904.5366096078362,True,arrowleft,,MEM,MEM_0071,2022-12-08 22:19:04
,html-keyboard-response,141,863737,0.0-141.0,,,,,8596.0,"
      <p>Thank you for your participation!</p>
      The goal of this study is to replicate previous findings that the timing of responses in memory-dependent tasks
      is rhythmic in nature (compared to the timing of responses in memory-independent tasks).
      You performed the memory-independent tasks in this study.
      <br>
      Your participation will allow us to better understand how memory works.
      Please do not share this information with other potential participants.
      <br>
      Press the space bar to continue.</p>", ,,,,,,,,,,,,,MEM,MEM_0071,2022-12-08 22:19:04
